PacketCounter,SampleTimeFine,dq_W,dq_X,dq_Y,dq_Z,dv[1],dv[2],dv[3],Mag_X,Mag_Y,Mag_Z,Status
1,231272557,0.000000000000000,0.000000,0.000000,0.000000,0.000000,0.000000,0.000000,0.000000,0.000000,0.000000,0
2,231289224,0.999999994862626,0.000069,0.000037,-0.000064,0.084219,0.032309,0.138265,-0.189453,-0.400146,-0.906982,0
3,231305891,0.999999993914250,0.000072,0.000048,-0.000068,0.084189,0.032446,0.138450,-0.189453,-0.403076,-0.909424,0
4,231322558,0.999999994154804,0.000062,0.000046,-0.000076,0.083943,0.032477,0.138301,-0.187500,-0.399658,-0.909912,0
5,231339225,0.999999992757818,0.000085,0.000046,-0.000072,0.084063,0.032248,0.138137,-0.191895,-0.403076,-0.910400,0
6,231355892,0.999999995015476,0.000053,0.000032,-0.000078,0.083893,0.032405,0.138032,-0.188965,-0.403076,-0.908936,0
7,231372559,0.999999994962952,0.000053,0.000041,-0.000074,0.084245,0.032372,0.138050,-0.187012,-0.402588,-0.906006,0
8,231389226,0.999999995858818,0.000058,0.000034,-0.000061,0.084275,0.031987,0.138069,-0.186523,-0.400146,-0.908447,0
9,231405893,0.999999995979368,0.000053,0.000041,-0.000059,0.084353,0.031800,0.138086,-0.187988,-0.402588,-0.908447,0
10,231422560,0.999999995458248,0.000061,0.000051,-0.000053,0.084017,0.031809,0.138364,-0.187500,-0.400146,-0.910400,0
11,231439227,0.999999995096069,0.000043,0.000061,-0.000065,0.083877,0.032308,0.138506,-0.186035,-0.402100,-0.907471,0
12,231455894,0.999999996958907,0.000046,0.000041,-0.000048,0.083918,0.031995,0.138041,-0.188965,-0.401123,-0.904541,0
13,231472561,0.999999996790067,0.000064,0.000031,-0.000036,0.083873,0.032260,0.138227,-0.188965,-0.400635,-0.908447,0
14,231489228,0.999999997415573,0.000055,0.000006,-0.000046,0.083907,0.032284,0.138411,-0.187500,-0.401611,-0.906494,0
15,231505895,0.999999998922269,-0.000001,0.000012,-0.000045,0.083811,0.032429,0.138393,-0.188965,-0.401123,-0.907471,0
16,231522562,0.999999998087933,0.000017,0.000006,-0.000059,0.083759,0.032421,0.138579,-0.188965,-0.401855,-0.911377,0
17,231539229,0.999999996445593,0.000048,0.000017,-0.000067,0.083739,0.032191,0.138197,-0.190918,-0.400146,-0.906982,0
18,231555896,0.999999996504092,0.000048,0.000016,-0.000067,0.084188,0.031805,0.138458,-0.189941,-0.400635,-0.911377,0
19,231572563,0.999999996543655,0.000026,0.000017,-0.000077,0.084318,0.031707,0.138122,-0.187988,-0.401123,-0.908936,0
20,231589230,0.999999993631894,0.000064,0.000047,-0.000080,0.083850,0.031818,0.138489,-0.190918,-0.402588,-0.909424,0
21,231605897,0.999999995137979,0.000060,0.000050,-0.000060,0.084045,0.031956,0.138294,-0.187988,-0.400635,-0.909424,0
22,231622564,0.999999996498474,0.000046,0.000055,-0.000044,0.084073,0.032075,0.138238,-0.189941,-0.401611,-0.908447,0
23,231639231,0.999999996680671,0.000054,0.000047,-0.000038,0.084102,0.031789,0.138153,-0.187988,-0.400146,-0.907959,0
24,231655898,0.999999997152558,0.000056,0.000041,-0.000030,0.084238,0.032268,0.137913,-0.186035,-0.404297,-0.910889,0
25,231672565,0.999999997288633,0.000049,0.000041,-0.000037,0.084026,0.032441,0.137992,-0.190430,-0.398193,-0.908936,0
26,231689232,0.999999996986416,0.000057,0.000033,-0.000041,0.084180,0.032355,0.138255,-0.188477,-0.401611,-0.907471,0
27,231705899,0.999999997803465,0.000035,0.000040,-0.000040,0.084047,0.032209,0.138013,-0.187988,-0.405762,-0.909424,0
28,231722566,0.999999995555977,0.000077,0.000033,-0.000043,0.084109,0.032150,0.138232,-0.190430,-0.401123,-0.908447,0
29,231739233,0.999999995559043,0.000070,0.000029,-0.000056,0.084083,0.032010,0.138248,-0.188965,-0.399658,-0.908447,0
30,231755900,0.999999995965381,0.000061,0.000028,-0.000060,0.084147,0.032055,0.138447,-0.190430,-0.402588,-0.908447,0
31,231772567,0.999999996808723,0.000034,0.000031,-0.000065,0.083982,0.032158,0.138447,-0.188477,-0.399170,-0.907471,0
32,231789234,0.999999996537791,0.000028,0.000039,-0.000068,0.084092,0.032011,0.138543,-0.191406,-0.401123,-0.907471,0
33,231805901,0.999999996826487,-0.000003,0.000037,-0.000070,0.084461,0.031300,0.138643,-0.189453,-0.402100,-0.910400,0
34,231822568,0.999999990536004,-0.000099,0.000079,-0.000054,0.085582,0.029061,0.139698,-0.189453,-0.402100,-0.909912,0
35,231839235,0.999999964773885,-0.000228,0.000136,-0.000001,0.086857,0.024592,0.139644,-0.189453,-0.401123,-0.907959,0
36,231855902,0.999999958344284,0.000084,0.000267,0.000070,0.087154,0.021735,0.138833,-0.186523,-0.401367,-0.910889,0
37,231872569,0.999999621742211,0.000705,0.000474,0.000188,0.085934,0.022521,0.139160,-0.186523,-0.403076,-0.908447,0
38,231889236,0.999999355342497,0.001031,0.000414,0.000234,0.083951,0.026355,0.139093,-0.189453,-0.402588,-0.907959,0
39,231905903,0.999999419642393,0.001028,0.000191,0.000261,0.082556,0.029514,0.139326,-0.186279,-0.405762,-0.907471,0
40,231922570,0.999999436213794,0.001035,0.000072,0.000225,0.082057,0.032087,0.138832,-0.185791,-0.405762,-0.909424,0
41,231939237,0.999999093714585,0.001337,0.000099,0.000120,0.081555,0.035013,0.136487,-0.185791,-0.411621,-0.908447,0
42,231955904,0.999998726740773,0.001577,0.000229,-0.000077,0.082858,0.039128,0.136275,-0.187256,-0.415039,-0.907959,0
43,231972571,0.999998941319855,0.001405,0.000241,-0.000293,0.082505,0.045947,0.137897,-0.185791,-0.416016,-0.906982,0
44,231989238,0.999999410062511,0.001009,0.000039,-0.000401,0.081705,0.050936,0.136631,-0.183838,-0.415039,-0.906006,0
45,232005905,0.999999802879800,0.000488,-0.000024,-0.000395,0.082739,0.051154,0.134133,-0.184814,-0.418945,-0.909424,0
46,232022572,0.999999922574141,0.000109,0.000020,-0.000378,0.084437,0.050066,0.133692,-0.183350,-0.415527,-0.908447,0
47,232039239,0.999999836911186,-0.000401,0.000051,-0.000403,0.085419,0.049646,0.133719,-0.185303,-0.420410,-0.908936,0
48,232055906,0.999999141848503,-0.001238,-0.000071,-0.000422,0.086822,0.051123,0.131486,-0.183838,-0.416504,-0.911377,0
49,232072573,0.999997804017742,-0.002025,-0.000165,-0.000513,0.090774,0.053304,0.134526,-0.185303,-0.410645,-0.909424,0
50,232089240,0.999996834029722,-0.002370,0.000385,-0.000754,0.095127,0.054756,0.144265,-0.184326,-0.405518,-0.904541,0
51,232105907,0.999997767023389,-0.001655,0.000761,-0.001071,0.100359,0.057708,0.141167,-0.182861,-0.403809,-0.907471,0
52,232122574,0.999994060008731,-0.001843,0.002444,-0.001584,0.109904,0.066384,0.158031,-0.177490,-0.403809,-0.909424,0
53,232139241,0.999987105618073,-0.002143,0.003991,-0.002295,0.121216,0.072769,0.173121,-0.166748,-0.395752,-0.909424,0
54,232155908,0.999982285791702,-0.001714,0.004552,-0.003431,0.128061,0.081746,0.171950,-0.156006,-0.391357,-0.908447,0
55,232172575,0.999973776661367,-0.001918,0.004920,-0.004956,0.128653,0.102165,0.170190,-0.142822,-0.386475,-0.909912,0
56,232189242,0.999955676813739,-0.003368,0.005418,-0.006924,0.124751,0.114699,0.165492,-0.130615,-0.380615,-0.909912,0
57,232205909,0.999931429034017,-0.004966,0.005896,-0.008816,0.118380,0.109682,0.151617,-0.113037,-0.370361,-0.911621,0
58,232222576,0.999889271293542,-0.008375,0.007222,-0.009958,0.116208,0.095095,0.132329,-0.095947,-0.353760,-0.914551,0
59,232239243,0.999857015322784,-0.009696,0.009203,-0.010355,0.105967,0.082354,0.132939,-0.073486,-0.335938,-0.911621,0
60,232255910,0.999848994515921,-0.010227,0.009073,-0.010727,0.095955,0.061412,0.139798,-0.050537,-0.308350,-0.912109,0
61,232272577,0.999847045602946,-0.010030,0.009297,-0.010902,0.086019,0.035365,0.134181,-0.028564,-0.287109,-0.907227,0
62,232289244,0.999850241911636,-0.009055,0.010249,-0.010604,0.086004,0.022087,0.138087,-0.006104,-0.263428,-0.905273,0
63,232305911,0.999858160199219,-0.008421,0.010855,-0.009742,0.084379,0.003058,0.151939,0.020020,-0.242676,-0.898682,0
64,232322578,0.999864501543441,-0.008076,0.011004,-0.009202,0.078439,-0.004315,0.154047,0.041992,-0.225586,-0.900879,0
65,232339245,0.999870634758820,-0.006922,0.011232,-0.009200,0.072417,-0.010182,0.152220,0.061523,-0.205078,-0.889404,0
66,232355912,0.999877641582225,-0.006113,0.011283,-0.008945,0.070113,-0.007734,0.154698,0.091309,-0.192871,-0.884033,0
67,232372579,0.999886279862379,-0.005197,0.011380,-0.008421,0.062224,-0.016748,0.163654,0.106201,-0.175049,-0.878418,0
68,232389246,0.999901416370804,-0.003570,0.011091,-0.007836,0.049878,-0.021984,0.165842,0.129639,-0.162354,-0.872070,0
69,232405913,0.999911454540895,-0.000273,0.011020,-0.007454,0.045862,-0.017289,0.169543,0.146729,-0.156738,-0.863525,0
70,232422580,0.999911488295027,0.002146,0.011239,-0.006788,0.045861,0.013568,0.170841,0.168945,-0.156250,-0.855713,0
71,232439247,0.999909515776010,0.001450,0.011517,-0.006798,0.038195,0.021197,0.167955,0.189209,-0.154297,-0.846191,0
72,232455914,0.999916041778534,0.002008,0.010688,-0.007045,0.030902,0.015524,0.170099,0.209717,-0.155273,-0.840576,0
73,232472581,0.999916351566144,0.001910,0.010866,-0.006751,0.036474,0.009598,0.163708,0.229980,-0.153320,-0.825684,0
74,232489248,0.999910199644628,0.002296,0.011517,-0.006456,0.038385,-0.005109,0.166274,0.248047,-0.154297,-0.818848,0
75,232505915,0.999906658334462,0.004482,0.011227,-0.006367,0.036281,-0.012188,0.169070,0.264893,-0.155762,-0.806396,0
76,232522582,0.999898339775889,0.005714,0.011536,-0.006130,0.035667,-0.005143,0.164554,0.282715,-0.162109,-0.798340,0
77,232539249,0.999893799056798,0.006247,0.011864,-0.005711,0.027096,0.000643,0.165751,0.303955,-0.169922,-0.783936,0
78,232555916,0.999896622658375,0.006473,0.011576,-0.005552,0.015772,-0.004417,0.166383,0.324219,-0.173828,-0.771484,0
79,232572583,0.999898624372718,0.006575,0.011530,-0.005154,0.008674,0.003177,0.160270,0.345703,-0.179688,-0.758545,0
80,232589250,0.999897720389326,0.006598,0.011775,-0.004728,0.005067,0.003191,0.160544,0.363037,-0.189941,-0.747559,0
81,232605917,0.999908779253463,0.006457,0.010911,-0.004658,-0.001892,0.006686,0.156862,0.380371,-0.197021,-0.735107,0
82,232622584,0.999913794668610,0.005907,0.010883,-0.004365,-0.007529,0.009755,0.148522,0.398682,-0.201904,-0.722168,0
83,232639251,0.999922094752643,0.005519,0.010409,-0.004122,-0.018214,0.012343,0.142992,0.412598,-0.208496,-0.708496,0
84,232655918,0.999928250175166,0.005399,0.009918,-0.003998,-0.028830,0.007757,0.137076,0.429199,-0.214111,-0.700684,0
85,232672585,0.999932986078485,0.006082,0.008988,-0.004032,-0.041353,0.008819,0.127913,0.445068,-0.218994,-0.685791,0
86,232689252,0.999930974928255,0.007381,0.008113,-0.004213,-0.050894,0.010678,0.121272,0.455566,-0.224609,-0.672607,0
87,232705919,0.999938641372691,0.007845,0.006657,-0.004106,-0.057181,0.015121,0.111034,0.467285,-0.234131,-0.664795,0
88,232722586,0.999944327318051,0.008204,0.005333,-0.003951,-0.065947,0.017646,0.102681,0.474854,-0.243896,-0.656738,0
89,232739253,0.999955279613977,0.007734,0.003933,-0.003763,-0.072903,0.022895,0.097498,0.480713,-0.249268,-0.642334,0
90,232755920,0.999960147575461,0.007884,0.002128,-0.003608,-0.075724,0.027645,0.088099,0.487305,-0.259766,-0.643311,0
91,232772587,0.999967202269227,0.007285,-0.000033,-0.003538,-0.082459,0.031064,0.082297,0.487305,-0.268555,-0.639160,0
92,232789254,0.999969530687616,0.006792,-0.001978,-0.003302,-0.082950,0.036169,0.076890,0.487305,-0.274414,-0.640137,0
93,232805921,0.999972923649558,0.005794,-0.003511,-0.002873,-0.080409,0.033304,0.081892,0.480469,-0.277344,-0.640137,0
94,232822588,0.999970685823039,0.005142,-0.005209,-0.002248,-0.071826,0.033628,0.086702,0.476562,-0.282471,-0.646729,0
95,232839255,0.999965886216479,0.004538,-0.006719,-0.001576,-0.068159,0.031794,0.089508,0.469727,-0.288818,-0.653564,0
96,232855922,0.999956662639796,0.004397,-0.008144,-0.001004,-0.063490,0.029557,0.093400,0.455322,-0.297363,-0.659668,0
97,232872589,0.999949337489671,0.004253,-0.009118,-0.000301,-0.052725,0.028317,0.105827,0.442139,-0.299805,-0.667969,0
98,232889256,0.999942037878690,0.004331,-0.009844,0.000506,-0.040545,0.029908,0.119878,0.425537,-0.306152,-0.677490,0
99,232905923,0.999941939247231,0.004446,-0.009733,0.001268,-0.028043,0.026933,0.133675,0.410645,-0.319580,-0.688477,0
100,232922590,0.999937906374953,0.005020,-0.009734,0.002058,-0.019342,0.029604,0.148903,0.398926,-0.328125,-0.695801,0
101,232939257,0.999936195682638,0.005710,-0.009245,0.003089,-0.010827,0.038117,0.157289,0.380859,-0.338135,-0.705811,0
102,232955924,0.999939487087730,0.005693,-0.008615,0.003794,-0.017508,0.053306,0.160567,0.362549,-0.351318,-0.712402,0
103,232972591,0.999943089137897,0.005391,-0.008242,0.004101,-0.019296,0.059695,0.160409,0.354248,-0.364258,-0.714844,0
104,232989258,0.999947807215579,0.005396,-0.007524,0.004320,-0.021939,0.063309,0.158017,0.337158,-0.375732,-0.723633,0
105,233005925,0.999947962801427,0.005603,-0.007133,0.004670,-0.013640,0.072372,0.157099,0.327393,-0.393555,-0.730225,0
106,233022592,0.999951136951472,0.004867,-0.006962,0.005057,-0.008540,0.080097,0.154242,0.310303,-0.405273,-0.730713,0
107,233039259,0.999955087198955,0.003862,-0.006625,0.005569,-0.004202,0.073812,0.151030,0.294189,-0.418213,-0.733154,0
108,233055926,0.999956172578633,0.003274,-0.006280,0.006124,0.003914,0.076023,0.147272,0.283936,-0.427002,-0.735107,0
109,233072593,0.999957432348327,0.002667,-0.006068,0.006419,0.000173,0.076582,0.144637,0.271240,-0.436279,-0.740967,0
110,233089260,0.999960599892726,0.002300,-0.005749,0.006361,0.007853,0.076576,0.135929,0.258545,-0.450684,-0.743408,0
111,233105927,0.999961706431779,0.001798,-0.005777,0.006323,0.003135,0.082308,0.134212,0.244629,-0.457031,-0.747070,0
112,233122594,0.999962429032437,0.001986,-0.005799,0.006129,0.001732,0.080090,0.128751,0.232422,-0.466064,-0.751465,0
113,233139261,0.999966894330304,0.001484,-0.005460,0.005848,0.006828,0.075582,0.128391,0.219238,-0.471924,-0.752441,0
114,233155928,0.999966261462662,0.001360,-0.005844,0.005610,0.006680,0.077198,0.129888,0.203613,-0.478760,-0.755371,0
115,233172595,0.999961765259570,0.001541,-0.006615,0.005507,0.006064,0.077872,0.126766,0.189941,-0.486084,-0.758301,0
116,233189262,0.999959667209343,0.001065,-0.007094,0.005405,0.008194,0.084976,0.124721,0.176514,-0.493652,-0.762939,0
117,233205929,0.999960253675128,0.001258,-0.007297,0.004966,0.011620,0.087052,0.129008,0.160400,-0.498047,-0.768311,0
118,233222596,0.999959604923665,0.001219,-0.007629,0.004593,0.025212,0.096336,0.128289,0.144775,-0.504395,-0.772217,0
119,233239263,0.999961846667173,0.000450,-0.007631,0.004228,0.022982,0.099535,0.131449,0.129395,-0.511475,-0.775635,0
120,233255930,0.999957648608847,0.000409,-0.008425,0.003682,0.022032,0.095110,0.128798,0.112305,-0.512207,-0.777344,0
121,233272597,0.999957563846274,0.000415,-0.008585,0.003316,0.030715,0.087689,0.131277,0.095703,-0.515625,-0.781738,0
122,233289264,0.999954257679452,0.001369,-0.008972,0.003018,0.030114,0.084528,0.133479,0.075928,-0.519531,-0.783203,0
123,233305931,0.999955709173609,0.001121,-0.008761,0.003250,0.042380,0.089045,0.134287,0.057861,-0.521973,-0.787598,0
124,233322598,0.999960277341295,0.000145,-0.008278,0.003302,0.051133,0.091212,0.139201,0.042236,-0.523438,-0.788818,0
125,233339265,0.999951817507538,-0.000492,-0.009327,0.003022,0.035833,0.098999,0.145891,0.023926,-0.526855,-0.794678,0
126,233355932,0.999937793975472,-0.002161,-0.010612,0.002669,0.036559,0.093985,0.134951,0.002686,-0.520996,-0.797607,0
127,233372599,0.999939300363532,-0.001798,-0.010607,0.002376,0.045612,0.088876,0.137391,-0.019775,-0.520020,-0.803223,0
128,233389266,0.999934970261736,-0.002057,-0.010997,0.002212,0.056587,0.090345,0.144993,-0.040527,-0.519287,-0.804688,0
129,233405933,0.999936639952927,-0.002128,-0.010769,0.002495,0.071444,0.083371,0.144011,-0.062500,-0.516357,-0.811279,0
130,233422600,0.999950956412501,-0.001552,-0.009399,0.002707,0.081115,0.088642,0.146539,-0.083252,-0.509521,-0.814697,0
131,233439267,0.999965985436411,-0.001603,-0.007687,0.002523,0.083302,0.096078,0.160888,-0.096436,-0.509277,-0.814209,0
132,233455934,0.999968709762714,-0.001881,-0.007442,0.001912,0.083544,0.099519,0.174049,-0.109375,-0.508301,-0.815674,0
133,233472601,0.999966951409042,-0.002916,-0.007508,0.001109,0.084575,0.102396,0.172897,-0.129395,-0.498779,-0.815186,0
134,233489268,0.999965441997074,-0.003917,-0.007330,0.000200,0.081887,0.102475,0.156498,-0.141357,-0.493896,-0.819824,0
135,233505935,0.999970945680030,-0.004851,-0.005848,-0.000621,0.080236,0.099059,0.139466,-0.155029,-0.482910,-0.823242,0
136,233522602,0.999979665259489,-0.004988,-0.003888,-0.000818,0.080717,0.091598,0.132263,-0.161133,-0.476074,-0.826172,0
137,233539269,0.999986155347489,-0.004684,-0.002361,-0.000423,0.084567,0.078798,0.131928,-0.167480,-0.466797,-0.827637,0
138,233555936,0.999985277982373,-0.004882,-0.002360,-0.000206,0.079258,0.070766,0.134623,-0.171875,-0.458252,-0.829834,0
139,233572603,0.999978117932193,-0.005850,-0.003089,-0.000071,0.079607,0.064343,0.122652,-0.177979,-0.446533,-0.831787,0
140,233589270,0.999976837587092,-0.005930,-0.003337,0.000142,0.078943,0.058945,0.117258,-0.186768,-0.435547,-0.836670,0
141,233605937,0.999975642131773,-0.005906,-0.003704,0.000325,0.078229,0.059110,0.112008,-0.192871,-0.422607,-0.840820,0
142,233622604,0.999973709004519,-0.006169,-0.003768,0.000566,0.079262,0.058838,0.113263,-0.202148,-0.412842,-0.844727,0
143,233639271,0.999974471361711,-0.005896,-0.003964,0.000761,0.079295,0.055420,0.115533,-0.209717,-0.402344,-0.844238,0
144,233655938,0.999973000856598,-0.005695,-0.004552,0.000916,0.078522,0.056961,0.116659,-0.219971,-0.388916,-0.844482,0
145,233672605,0.999973605136106,-0.004941,-0.005243,0.000943,0.080006,0.058059,0.122765,-0.227295,-0.378174,-0.845947,0
146,233689272,0.999967810171066,-0.005455,-0.005797,0.001013,0.083497,0.061364,0.123927,-0.240723,-0.369629,-0.847900,0
147,233705939,0.999963508612598,-0.006573,-0.005314,0.001238,0.093771,0.062270,0.131656,-0.250488,-0.354736,-0.846436,0
148,233722606,0.999962148954077,-0.007246,-0.004541,0.001605,0.104989,0.057175,0.138695,-0.263428,-0.342285,-0.848877,0
149,233739273,0.999961120552781,-0.007527,-0.004148,0.001974,0.107689,0.055463,0.138288,-0.271484,-0.329102,-0.851074,0
150,233755940,0.999953675542290,-0.008532,-0.003935,0.002088,0.100803,0.057464,0.136154,-0.279785,-0.312256,-0.852051,0
151,233772607,0.999962354534517,-0.007752,-0.003444,0.001824,0.104346,0.048096,0.141931,-0.286865,-0.297363,-0.852539,0
152,233789274,0.999977333695853,-0.005937,-0.002960,0.001152,0.111080,0.045609,0.148717,-0.295166,-0.282959,-0.857178,0
153,233805941,0.999974655333970,-0.006758,-0.002185,0.000494,0.111076,0.054065,0.153205,-0.299072,-0.270508,-0.857178,0
154,233822608,0.999966681006887,-0.008122,-0.000817,-0.000041,0.107106,0.047811,0.158434,-0.303711,-0.257812,-0.859619,0
155,233839275,0.999971692992745,-0.007522,-0.000186,-0.000047,0.111770,0.027652,0.149874,-0.304688,-0.241943,-0.857666,0
156,233855942,0.999984358060871,-0.005515,0.000920,0.000153,0.114787,0.010263,0.144172,-0.301758,-0.230957,-0.860107,0
157,233872609,0.999990061318890,-0.003784,0.002321,0.000409,0.110485,0.002592,0.142416,-0.300049,-0.219238,-0.857666,0
158,233889276,0.999989649857099,-0.002933,0.003391,0.000773,0.102990,-0.000229,0.142923,-0.294678,-0.213867,-0.865234,0
159,233905943,0.999988180927362,-0.002695,0.003867,0.001193,0.096370,-0.003131,0.144115,-0.285889,-0.209961,-0.860596,0
160,233922610,0.999988344055523,-0.002346,0.003911,0.001585,0.094575,-0.002327,0.141492,-0.282471,-0.201416,-0.864746,0
161,233939277,0.999986235612588,-0.002416,0.004231,0.001947,0.094144,-0.004740,0.143041,-0.273193,-0.198730,-0.868652,0
162,233955944,0.999986344436593,-0.001185,0.004475,0.002426,0.095538,-0.019600,0.148408,-0.261475,-0.192139,-0.867676,0
163,233972611,0.999988240276805,0.000040,0.003982,0.002768,0.102548,-0.032702,0.145362,-0.255127,-0.190430,-0.869629,0
164,233989278,0.999979749282401,0.003066,0.004554,0.003219,0.104447,-0.043118,0.146047,-0.248047,-0.194824,-0.870117,0
165,234005945,0.999959901635001,0.006538,0.004971,0.003569,0.095866,-0.043073,0.159314,-0.237305,-0.206787,-0.871094,0
166,234022612,0.999947745928374,0.008227,0.004596,0.003963,0.099672,-0.045548,0.162241,-0.231201,-0.221191,-0.870605,0
167,234039279,0.999927628889818,0.009817,0.005305,0.004498,0.106299,-0.039372,0.161341,-0.218994,-0.238525,-0.872559,0
168,234055946,0.999867798859830,0.013967,0.006523,0.005173,0.104535,-0.060622,0.164222,-0.209473,-0.263184,-0.872070,0
169,234072613,0.999797774844584,0.017671,0.007131,0.006425,0.118110,-0.045174,0.158280,-0.193115,-0.294922,-0.868896,0
170,234089280,0.999706000575117,0.021123,0.008890,0.007917,0.122172,-0.017098,0.137235,-0.180664,-0.331055,-0.863281,0
171,234105947,0.999656694444395,0.022110,0.011309,0.008350,0.093026,-0.006455,0.152712,-0.157227,-0.375488,-0.856201,0
172,234122614,0.999668976448110,0.021860,0.010291,0.008841,0.082446,0.009522,0.143429,-0.141846,-0.418457,-0.849121,0
173,234139281,0.999686587429807,0.020788,0.010351,0.009352,0.075318,0.033746,0.128431,-0.124756,-0.460449,-0.837646,0
174,234155948,0.999662832872503,0.021831,0.010374,0.009487,0.069520,0.023090,0.106184,-0.109863,-0.501953,-0.824707,0
175,234172615,0.999676441611432,0.021204,0.010248,0.009611,0.064668,0.054479,0.105043,-0.095703,-0.545410,-0.811035,0
176,234189282,0.999719578481286,0.019127,0.009572,0.010163,0.058423,0.078691,0.097146,-0.086182,-0.582520,-0.797607,0
177,234205949,0.999777635003828,0.016392,0.008482,0.010200,0.051468,0.098340,0.079837,-0.072266,-0.614014,-0.779541,0
178,234222616,0.999823878553646,0.014087,0.007537,0.009847,0.046564,0.100533,0.071456,-0.067627,-0.645020,-0.767090,0
179,234239283,0.999865799619591,0.012077,0.005573,0.009563,0.042436,0.101309,0.066536,-0.064453,-0.668213,-0.756592,0
180,234255950,0.999898424329053,0.009921,0.003455,0.009632,0.043742,0.108305,0.055655,-0.066162,-0.692627,-0.745605,0
181,234272617,0.999927238511825,0.006811,0.001608,0.009826,0.041151,0.113684,0.047822,-0.068604,-0.708984,-0.737061,0
182,234289284,0.999936800465309,0.005658,-0.000185,0.009714,0.044966,0.113813,0.051405,-0.077881,-0.721191,-0.733643,0
183,234305951,0.999943880698310,0.004907,-0.001927,0.009189,0.047476,0.146673,0.059494,-0.092285,-0.731934,-0.724609,0
184,234322618,0.999959533794657,0.001707,-0.003455,0.008129,0.049393,0.150842,0.064207,-0.102051,-0.737305,-0.724609,0
185,234339285,0.999965423068922,-0.000279,-0.005006,0.006634,0.060498,0.147121,0.073152,-0.117920,-0.741699,-0.729004,0
186,234355952,0.999959356088165,-0.003079,-0.006701,0.005187,0.074768,0.160350,0.094927,-0.133057,-0.737305,-0.728760,0
187,234372619,0.999944056272116,-0.004882,-0.008516,0.003940,0.086523,0.169014,0.107936,-0.151367,-0.727783,-0.732178,0
188,234389286,0.999953696194035,-0.004554,-0.008033,0.002709,0.108357,0.187870,0.109793,-0.169189,-0.719971,-0.742188,0
189,234405953,0.999978172246401,-0.004092,-0.005165,0.000483,0.109046,0.191899,0.117302,-0.183838,-0.713135,-0.749023,0
190,234422620,0.999986325730627,-0.004546,-0.002385,-0.000995,0.127992,0.210352,0.119747,-0.187500,-0.706543,-0.752197,0
191,234439287,0.999942449457809,-0.010680,-0.000386,-0.000945,0.134384,0.227921,0.134008,-0.191895,-0.690918,-0.763672,0
192,234455954,0.999806952344019,-0.019598,-0.000591,-0.001277,0.133261,0.216479,0.144490,-0.190674,-0.659912,-0.777100,0
193,234472621,0.999556254263760,-0.029684,-0.000756,-0.002362,0.127404,0.169925,0.114852,-0.194092,-0.605713,-0.805664,0
194,234489288,0.999438099415462,-0.033360,0.001440,-0.002923,0.126326,0.102963,0.081365,-0.189209,-0.544678,-0.832520,0
195,234505955,0.999451453573426,-0.032735,0.004230,-0.002701,0.119180,0.037451,0.079087,-0.184814,-0.478760,-0.854980,0
196,234522622,0.999632368278334,-0.026413,0.005693,-0.002255,0.095194,-0.008881,0.097504,-0.173340,-0.424072,-0.875000,0
197,234539289,0.999671383339890,-0.024732,0.006467,-0.001912,0.075955,-0.046905,0.107011,-0.162354,-0.370850,-0.883057,0
198,234555956,0.999651452572437,-0.025699,0.005950,-0.001059,0.073184,-0.067597,0.117015,-0.150879,-0.321533,-0.891846,0
199,234572623,0.999655435868290,-0.025736,0.005161,-0.000143,0.065123,-0.107416,0.120409,-0.140381,-0.270264,-0.897705,0
200,234589290,0.999785897193527,-0.020364,0.003304,0.001591,0.061052,-0.133213,0.128636,-0.133301,-0.224365,-0.900391,0
201,234605957,0.999862178502250,-0.016108,0.002309,0.003288,0.055545,-0.157255,0.118730,-0.127686,-0.189209,-0.901855,0
202,234622624,0.999955594433830,-0.008553,0.001011,0.003825,0.043784,-0.149732,0.122910,-0.126221,-0.166016,-0.905518,0
203,234639291,0.999986404301397,-0.002048,-0.001037,0.004682,0.039718,-0.135102,0.130205,-0.128662,-0.159668,-0.906982,0
204,234655958,0.999970878464167,0.004291,-0.002871,0.005620,0.046922,-0.139760,0.131518,-0.132568,-0.164551,-0.906494,0
205,234672625,0.999898702267241,0.011855,-0.005118,0.005987,0.061004,-0.119613,0.125232,-0.139404,-0.188721,-0.902344,0
206,234689292,0.999828074153409,0.016659,-0.005661,0.005853,0.080302,-0.083837,0.126011,-0.153564,-0.217773,-0.904297,0
207,234705959,0.999772688091420,0.019836,-0.005567,0.005486,0.096843,-0.032572,0.141014,-0.163574,-0.257812,-0.904785,0
208,234722626,0.999765101017706,0.020537,-0.004995,0.004798,0.113113,0.015311,0.136793,-0.174072,-0.298828,-0.896729,0
209,234739293,0.999738543827001,0.022218,-0.003851,0.003790,0.103222,0.066692,0.138885,-0.184570,-0.342773,-0.892090,0
210,234755960,0.999735450120962,0.022595,-0.003553,0.002428,0.091151,0.100428,0.155290,-0.190674,-0.391113,-0.885742,0
211,234772627,0.999841006859414,0.017524,-0.002985,0.001396,0.104898,0.136474,0.152797,-0.196777,-0.426025,-0.870605,0
212,234789294,0.999918930673594,0.012660,-0.001124,0.000762,0.100586,0.153471,0.145773,-0.199707,-0.456055,-0.865479,0
213,234805961,0.999968043108729,0.007908,-0.001123,-0.000341,0.102140,0.170847,0.125781,-0.202881,-0.475342,-0.856689,0
214,234822628,0.999994349290684,0.002986,-0.000932,-0.001232,0.100257,0.145192,0.140657,-0.205322,-0.479736,-0.858643,0
215,234839295,0.999997038855757,-0.000000,-0.000905,-0.002259,0.102713,0.110496,0.140665,-0.204346,-0.482666,-0.857178,0
216,234855962,0.999990444341429,-0.003336,0.000254,-0.002814,0.103156,0.079758,0.138855,-0.201904,-0.479736,-0.858643,0
217,234872629,0.999981787054892,-0.005464,0.001010,-0.002357,0.103483,0.054244,0.127370,-0.199463,-0.468994,-0.861572,0
218,234889296,0.999982997220192,-0.005258,0.001374,-0.002115,0.102905,0.032516,0.126077,-0.195557,-0.459473,-0.862549,0
219,234905963,0.999987099002253,-0.004473,0.001229,-0.002070,0.094615,0.025320,0.124737,-0.193359,-0.448730,-0.866211,0
220,234922630,0.999988042891624,-0.004341,0.000800,-0.002104,0.086619,0.025433,0.125078,-0.190430,-0.440430,-0.867188,0
221,234939297,0.999988213011478,-0.004240,0.000678,-0.002267,0.083514,0.022940,0.133853,-0.190430,-0.429932,-0.873535,0
222,234955964,0.999989611856280,-0.003834,0.000498,-0.002414,0.082016,0.016191,0.135666,-0.185547,-0.423584,-0.873535,0
223,234972631,0.999993327489450,-0.002720,0.000603,-0.002362,0.083355,0.011578,0.143811,-0.183594,-0.415771,-0.875244,0
224,234989298,0.999994996522598,-0.002110,0.000854,-0.002197,0.083410,0.013945,0.143596,-0.182617,-0.413818,-0.876221,0
225,235005965,0.999996470568715,-0.001674,0.000791,-0.001906,0.079109,0.016217,0.130711,-0.177979,-0.407715,-0.876221,0
226,235022632,0.999996784038865,-0.001750,-0.000493,-0.001769,0.071385,0.015150,0.119001,-0.177002,-0.405273,-0.879150,0
227,235039299,0.999996909380400,-0.001136,-0.001332,-0.001765,0.066411,0.009801,0.113973,-0.181885,-0.404785,-0.876709,0
228,235055966,0.999997357702683,0.000424,-0.001599,-0.001597,0.069447,0.015839,0.127853,-0.184326,-0.401367,-0.874268,0
229,235072633,0.999995592106331,0.001134,-0.002157,-0.001696,0.075112,0.020466,0.143125,-0.186279,-0.403809,-0.875244,0
230,235089300,0.999993862438028,0.001550,-0.002540,-0.001849,0.083255,0.024162,0.144486,-0.190186,-0.405762,-0.873047,0
231,235105967,0.999994037313066,0.001591,-0.002552,-0.001697,0.085756,0.031548,0.139297,-0.196045,-0.408203,-0.876221,0
232,235122634,0.999996177891993,0.001207,-0.001999,-0.001480,0.086743,0.034338,0.142168,-0.201904,-0.415039,-0.871582,0
233,235139301,0.999997920390626,0.000540,-0.001611,-0.001128,0.087040,0.044072,0.141990,-0.202393,-0.415527,-0.872070,0
234,235155968,0.999997557616327,-0.000952,-0.001800,-0.000858,0.084971,0.043921,0.144196,-0.204834,-0.413086,-0.872070,0
235,235172635,0.999995955054632,-0.001558,-0.002263,-0.000736,0.085070,0.030873,0.138589,-0.210693,-0.413086,-0.871582,0
236,235189302,0.999994956911451,-0.001605,-0.002643,-0.000726,0.082549,0.024480,0.129554,-0.213135,-0.408691,-0.872070,0
237,235205969,0.999996704513295,-0.000516,-0.002391,-0.000781,0.085066,0.022233,0.128580,-0.217041,-0.402588,-0.872803,0
238,235222636,0.999998078416846,0.000193,-0.001800,-0.000752,0.088735,0.022490,0.131072,-0.220947,-0.405762,-0.875732,0
239,235239303,0.999998235665594,0.000514,-0.001658,-0.000717,0.089218,0.028593,0.131762,-0.222900,-0.407715,-0.871582,0
240,235255970,0.999997630988503,0.000447,-0.002027,-0.000657,0.089353,0.031195,0.135185,-0.227783,-0.406982,-0.871582,0
241,235272637,0.999997427048653,0.000112,-0.002195,-0.000563,0.090975,0.032040,0.139626,-0.231689,-0.405029,-0.867676,0
242,235289304,0.999997651199481,-0.000173,-0.002104,-0.000491,0.094764,0.034050,0.142535,-0.238281,-0.407959,-0.869629,0
243,235305971,0.999998455181127,-0.000425,-0.001645,-0.000449,0.097557,0.035695,0.148739,-0.236816,-0.407471,-0.869629,0
244,235322638,0.999999159548849,-0.000362,-0.001170,-0.000425,0.099727,0.034452,0.143314,-0.245605,-0.406982,-0.867188,0
245,235339305,0.999999417130554,-0.000400,-0.000903,-0.000436,0.096466,0.033850,0.134613,-0.246582,-0.406006,-0.870117,0
246,235355972,0.999999377002269,-0.000929,-0.000474,-0.000398,0.093517,0.031225,0.129291,-0.244629,-0.404541,-0.869141,0
247,235372639,0.999999560341551,-0.000793,-0.000385,-0.000320,0.092569,0.028685,0.130664,-0.246582,-0.403564,-0.870117,0
248,235389306,0.999999577514593,-0.000779,-0.000355,-0.000335,0.093312,0.026638,0.134568,-0.250000,-0.402588,-0.869629,0
249,235405973,0.999999738767911,-0.000640,-0.000158,-0.000297,0.093792,0.028760,0.133741,-0.247559,-0.399170,-0.871826,0
250,235422640,0.999999865692137,-0.000372,-0.000259,-0.000251,0.091841,0.027653,0.133238,-0.249023,-0.398193,-0.871826,0
251,235439307,0.999999845715050,-0.000380,-0.000315,-0.000254,0.092013,0.027192,0.134315,-0.247559,-0.396973,-0.869629,0
252,235455974,0.999999907196109,-0.000303,-0.000193,-0.000237,0.093496,0.029567,0.134739,-0.250000,-0.395020,-0.872314,0
253,235472641,0.999999889268681,-0.000369,-0.000163,-0.000243,0.094085,0.028486,0.138859,-0.249023,-0.398682,-0.869629,0
254,235489308,0.999999846669780,-0.000486,-0.000188,-0.000188,0.093750,0.029248,0.138429,-0.248535,-0.396973,-0.869141,0
255,235505975,0.999999933700858,-0.000328,0.000080,-0.000136,0.094152,0.029996,0.135408,-0.247070,-0.396240,-0.873779,0
256,235522642,0.999999845778072,-0.000488,0.000261,-0.000046,0.091825,0.033798,0.132858,-0.251953,-0.389648,-0.873779,0
257,235539309,0.999999725377199,-0.000586,0.000434,0.000133,0.089318,0.037262,0.128725,-0.250488,-0.394043,-0.872314,0
258,235555976,0.999999224165343,-0.001095,0.000489,0.000337,0.089697,0.043651,0.127900,-0.247559,-0.390137,-0.872803,0
259,235572643,0.999998228292934,-0.001861,0.000071,0.000273,0.087519,0.037767,0.138377,-0.249512,-0.385742,-0.869873,0
260,235589310,0.999996421042476,-0.002530,-0.000836,0.000237,0.088571,0.028635,0.133003,-0.249023,-0.380859,-0.873291,0
261,235605977,0.999997348052449,-0.002156,-0.000802,0.000122,0.093839,0.023381,0.138741,-0.254639,-0.377441,-0.874268,0
262,235622644,0.999998776482244,-0.001561,-0.000104,-0.000003,0.099070,0.017144,0.149961,-0.249268,-0.374756,-0.874268,0
263,235639311,0.999999791493036,0.000058,0.000640,-0.000058,0.102935,0.012746,0.149407,-0.254150,-0.372314,-0.875732,0
264,235655978,0.999998938825162,0.000775,0.001229,-0.000104,0.105226,0.015525,0.151701,-0.249268,-0.374756,-0.874268,0
265,235672645,0.999996736778745,0.001282,0.002200,-0.000210,0.104271,0.012222,0.142854,-0.245361,-0.374512,-0.874268,0
266,235689312,0.999994749855172,0.001911,0.002602,-0.000276,0.099158,0.013266,0.140696,-0.240723,-0.375977,-0.875244,0
267,235705979,0.999994032036345,0.002380,0.002454,-0.000495,0.091199,0.008056,0.139904,-0.236328,-0.382324,-0.876709,0
268,235722646,0.999997525129256,0.001473,0.001358,-0.000967,0.085026,0.000411,0.136289,-0.230957,-0.389404,-0.877197,0
269,235739313,0.999998534792857,0.001269,0.000203,-0.001131,0.087477,-0.015317,0.113905,-0.229492,-0.388428,-0.875732,0
270,235755980,0.999987078722951,0.004777,-0.001233,-0.001225,0.078882,-0.008180,0.121425,-0.229980,-0.396729,-0.874756,0
271,235772647,0.999979706402045,0.006126,-0.001618,-0.000661,0.086897,-0.013316,0.110022,-0.234375,-0.407471,-0.870605,0
272,235789314,0.999942395245527,0.010719,-0.000555,-0.000092,0.088829,-0.004081,0.099476,-0.234619,-0.423828,-0.864258,0
273,235805981,0.999911673357545,0.013270,0.000578,0.000480,0.085812,0.027200,0.107649,-0.234863,-0.448486,-0.857666,0
274,235822648,0.999928110237571,0.011970,0.000424,0.000551,0.080664,0.058908,0.135527,-0.233398,-0.476074,-0.850098,0
275,235839315,0.999969447851302,0.007543,-0.001932,0.000689,0.082423,0.087763,0.154052,-0.236084,-0.493652,-0.842529,0
276,235855982,0.999988471386273,0.002951,-0.003715,0.000743,0.083676,0.108102,0.137809,-0.244385,-0.499756,-0.842041,0
277,235872649,0.999996303635012,0.000567,-0.002637,0.000340,0.094475,0.104790,0.118524,-0.247314,-0.501709,-0.841064,0
278,235889316,0.999999810837090,0.000493,-0.000313,-0.000195,0.100488,0.095493,0.122866,-0.251709,-0.503662,-0.839600,0
279,235905983,0.999999451455303,0.000426,-0.000050,-0.000956,0.083416,0.090912,0.124293,-0.246826,-0.506104,-0.840576,0
280,235922650,0.999998744394717,0.000537,0.000272,-0.001466,0.085676,0.087751,0.121089,-0.246826,-0.507080,-0.842041,0
281,235939317,0.999997455302258,-0.000989,0.000960,-0.001786,0.086580,0.086966,0.123866,-0.246338,-0.506592,-0.840088,0
282,235955984,0.999996238098085,-0.001487,0.000101,-0.002303,0.086175,0.079318,0.130273,-0.243896,-0.499268,-0.842041,0
283,235972651,0.999993906338931,-0.001640,-0.001408,-0.002742,0.085931,0.072744,0.121905,-0.240967,-0.495850,-0.843262,0
284,235989318,0.999989523498670,-0.001989,-0.002104,-0.003545,0.090681,0.070393,0.112990,-0.242920,-0.495605,-0.841553,0
285,236005985,0.999987302305079,-0.002002,-0.001492,-0.004377,0.096256,0.069629,0.113577,-0.247559,-0.486816,-0.843262,0
286,236022652,0.999985024550416,-0.001552,-0.001655,-0.004980,0.096926,0.069868,0.121221,-0.247559,-0.486328,-0.842285,0
287,236039319,0.999981357101038,-0.002544,-0.001846,-0.005235,0.108500,0.071796,0.124893,-0.247070,-0.483398,-0.840576,0
288,236055986,0.999975701024180,-0.003878,-0.001666,-0.005548,0.108864,0.065184,0.123693,-0.249023,-0.477539,-0.845215,0
289,236072653,0.999968356418176,-0.005130,-0.001729,-0.005830,0.105716,0.068993,0.128217,-0.248535,-0.467529,-0.846680,0
290,236089320,0.999960455645844,-0.006621,-0.001411,-0.005767,0.111246,0.061259,0.125480,-0.249023,-0.458740,-0.850098,0
291,236105987,0.999960296805850,-0.007166,-0.000343,-0.005286,0.114597,0.053665,0.126904,-0.246338,-0.443359,-0.853271,0
292,236122654,0.999954874032947,-0.007567,0.000433,-0.005727,0.114064,0.037386,0.127640,-0.245850,-0.429688,-0.856201,0
293,236139321,0.999961884554770,-0.006228,0.001137,-0.006013,0.103786,0.032777,0.127452,-0.237549,-0.413330,-0.862793,0
294,236155988,0.999960131857199,-0.006278,0.001294,-0.006217,0.091800,0.041311,0.132400,-0.234131,-0.406006,-0.862305,0
295,236172655,0.999960118198476,-0.006691,0.001090,-0.005814,0.089715,0.049857,0.130122,-0.227539,-0.392090,-0.866211,0
296,236189322,0.999958595028650,-0.007380,0.000921,-0.005243,0.085740,0.041165,0.131079,-0.224609,-0.376465,-0.871826,0
297,236205989,0.999953781090611,-0.008210,0.000587,-0.004969,0.082100,0.033159,0.130454,-0.223633,-0.365967,-0.870361,0
298,236222656,0.999950824988654,-0.008836,0.000871,-0.004417,0.085809,0.028603,0.123350,-0.218994,-0.347900,-0.874756,0
299,236239323,0.999958431686274,-0.008401,0.001086,-0.003373,0.083305,0.011457,0.126335,-0.217529,-0.331543,-0.879395,0
300,236255990,0.999965661455898,-0.007860,0.000620,-0.002552,0.082075,-0.000201,0.126668,-0.212158,-0.314697,-0.880859,0
301,236272657,0.999963188867968,-0.008308,0.001723,-0.001275,0.086443,-0.003536,0.151532,-0.212402,-0.299072,-0.882812,0
302,236289324,0.999981970917293,-0.005198,0.002906,-0.000772,0.085760,-0.035390,0.178848,-0.205078,-0.287109,-0.883301,0
303,236305991,0.999985834989575,-0.005182,0.001113,-0.000491,0.085571,-0.040512,0.145899,-0.202637,-0.274902,-0.888916,0
304,236322658,0.999997320458698,-0.002207,0.000558,0.000420,0.091385,-0.039025,0.128068,-0.200195,-0.266357,-0.885986,0
305,236339325,0.999997706475671,-0.000010,0.000839,0.001970,0.084808,-0.029138,0.127228,-0.200195,-0.267822,-0.887939,0
306,236355992,0.999993098576689,0.001066,0.001784,0.003080,0.086630,-0.023650,0.132656,-0.202637,-0.269287,-0.886963,0
307,236372659,0.999990356942956,0.001477,0.002163,0.003525,0.088852,-0.013465,0.144592,-0.193848,-0.271240,-0.885010,0
308,236389326,0.999987836259921,0.002709,0.001753,0.003731,0.095393,0.003983,0.143061,-0.192383,-0.275391,-0.888428,0
309,236405993,0.999982031206911,0.003977,0.002049,0.003991,0.096272,0.017986,0.141191,-0.192383,-0.281738,-0.885254,0
310,236422660,0.999984397563019,0.002949,0.002249,0.004177,0.092162,0.025635,0.146254,-0.187256,-0.290771,-0.886963,0
311,236439327,0.999983703058358,0.003307,0.001981,0.004211,0.094319,0.025084,0.145359,-0.179443,-0.295654,-0.883301,0
312,236455994,0.999980125681845,0.003901,0.002720,0.004139,0.097737,0.043062,0.143810,-0.180420,-0.302002,-0.884766,0
313,236472661,0.999975999298531,0.003615,0.004058,0.004297,0.102364,0.055926,0.150935,-0.172119,-0.308594,-0.885254,0
314,236489328,0.999972541293014,0.003519,0.004748,0.004471,0.098009,0.059697,0.155902,-0.165527,-0.313477,-0.880859,0
315,236505995,0.999972711772277,0.002193,0.005380,0.004563,0.096651,0.070917,0.157306,-0.156250,-0.321045,-0.884277,0
316,236522662,0.999967915755008,-0.000154,0.006417,0.004793,0.096755,0.068136,0.149086,-0.144531,-0.322021,-0.883789,0
317,236539329,0.999962280034842,-0.000143,0.007199,0.004858,0.089829,0.055370,0.149822,-0.130859,-0.319580,-0.885742,0
318,236555996,0.999965036424348,-0.000469,0.007002,0.004547,0.083937,0.054709,0.143984,-0.119385,-0.322998,-0.884766,0
319,236572663,0.999964854912292,-0.000953,0.007092,0.004369,0.075950,0.049077,0.137310,-0.109619,-0.320068,-0.883301,0
320,236589330,0.999965250355477,-0.001823,0.007095,0.003980,0.069442,0.038959,0.137559,-0.094482,-0.320801,-0.883301,0
321,236605997,0.999970664174650,-0.001759,0.006498,0.003654,0.061125,0.020426,0.140448,-0.082275,-0.313232,-0.881836,0
322,236622664,0.999981726698913,-0.000673,0.005067,0.003228,0.057434,0.012522,0.135014,-0.072754,-0.312988,-0.882324,0
323,236639331,0.999984473667024,0.000122,0.004719,0.002962,0.057021,0.007431,0.129496,-0.065918,-0.312988,-0.883789,0
324,236655998,0.999986722851686,0.000580,0.004410,0.002601,0.053483,0.009821,0.132165,-0.060059,-0.316895,-0.880371,0
325,236672665,0.999990432778998,0.000594,0.003581,0.002441,0.050615,0.007896,0.132190,-0.053711,-0.316895,-0.879639,0
326,236689332,0.999993787311943,0.001371,0.002455,0.002125,0.046170,0.018889,0.127730,-0.045898,-0.321777,-0.877686,0
327,236705999,0.999995969999441,0.001070,0.001695,0.002011,0.044693,0.027744,0.125992,-0.044434,-0.322266,-0.879150,0
328,236722666,0.999998135918783,0.000772,0.000811,0.001573,0.041067,0.031357,0.129076,-0.043457,-0.324219,-0.879150,0
329,236739333,0.999999243486971,0.000695,-0.000139,0.001006,0.036987,0.034864,0.129060,-0.041748,-0.327881,-0.879639,0
330,236756000,0.999998947495742,0.000342,-0.001138,0.000832,0.040174,0.033064,0.135448,-0.040771,-0.329346,-0.878662,0
331,236772667,0.999996902433460,-0.000444,-0.002387,0.000549,0.039488,0.031267,0.136888,-0.045898,-0.328369,-0.881592,0
332,236789334,0.999995453715875,-0.000622,-0.002935,0.000304,0.042115,0.028099,0.136860,-0.054199,-0.327637,-0.878662,0
333,236806001,0.999994152241627,0.000351,-0.003399,0.000125,0.045819,0.022784,0.143884,-0.060547,-0.328613,-0.880127,0
334,236822668,0.999989165800776,0.001213,-0.004478,-0.000381,0.050681,0.033022,0.137465,-0.069824,-0.332031,-0.879150,0
335,236839335,0.999987528830717,-0.000253,-0.004975,-0.000363,0.054135,0.044051,0.138504,-0.078613,-0.329590,-0.881348,0
336,236856002,0.999983269485914,-0.000168,-0.005772,-0.000341,0.061845,0.039971,0.140171,-0.086426,-0.329590,-0.882812,0
337,236872669,0.999978370711194,0.000601,-0.006526,-0.000555,0.065394,0.043793,0.132585,-0.098877,-0.330566,-0.879150,0
338,236889336,0.999985202050309,0.000545,-0.005394,-0.000447,0.082998,0.044347,0.142310,-0.112061,-0.330566,-0.881836,0
339,236906003,0.999992234907531,-0.000441,-0.003851,-0.000713,0.083208,0.032547,0.152877,-0.121338,-0.329590,-0.882324,0
340,236922670,0.999989363835086,-0.001135,-0.004274,-0.001311,0.069932,0.029186,0.143277,-0.128174,-0.329346,-0.882812,0
341,236939337,0.999981074913371,-0.001211,-0.005635,-0.002152,0.064400,0.015257,0.143821,-0.139648,-0.326904,-0.881836,0
342,236956004,0.999973628877739,0.001457,-0.006623,-0.002598,0.071547,-0.006344,0.135804,-0.149902,-0.329346,-0.878662,0
343,236972671,0.999963024915026,0.004414,-0.007144,-0.001851,0.075944,-0.000173,0.136771,-0.162109,-0.331299,-0.881348,0
344,236989338,0.999952970377148,0.005103,-0.008202,-0.000866,0.076570,0.015538,0.142070,-0.175781,-0.344971,-0.877197,0
345,237006005,0.999951836569905,0.002749,-0.009420,-0.000174,0.071404,0.035219,0.130176,-0.196289,-0.352295,-0.875732,0
346,237022672,0.999956252279717,-0.000424,-0.009307,0.000834,0.070587,0.033012,0.131159,-0.214355,-0.350342,-0.872803,0
347,237039339,0.999946973197255,-0.000487,-0.010208,0.001271,0.078613,0.029867,0.134893,-0.234619,-0.351074,-0.873291,0
348,237056006,0.999932455932708,0.000150,-0.011541,0.001366,0.083311,0.028354,0.132583,-0.252197,-0.352051,-0.868408,0
349,237072673,0.999913193480425,0.001518,-0.013021,0.001322,0.085874,0.048401,0.143872,-0.279541,-0.356445,-0.866943,0
350,237089340,0.999888408883583,0.000338,-0.014905,0.000948,0.096244,0.080433,0.144215,-0.312988,-0.356689,-0.856934,0
351,237106007,0.999851840390976,-0.002496,-0.017023,0.000530,0.101389,0.114091,0.141784,-0.343018,-0.352539,-0.854004,0
352,237122674,0.999803519359681,-0.008201,-0.018045,0.000230,0.132896,0.131089,0.133206,-0.378662,-0.340332,-0.849121,0
353,237139341,0.999750811594096,-0.015007,-0.016507,0.000781,0.140364,0.095634,0.146296,-0.415283,-0.312988,-0.843750,0
354,237156008,0.999721514907815,-0.016547,-0.016790,0.001091,0.156459,0.066538,0.150632,-0.444336,-0.281250,-0.837158,0
355,237172675,0.999678575093056,-0.017912,-0.017941,-0.000167,0.156301,0.034923,0.144082,-0.480225,-0.248779,-0.829346,0
356,237189342,0.999688504691357,-0.017908,-0.017273,-0.001955,0.146373,-0.001873,0.116597,-0.513184,-0.215820,-0.820068,0
357,237206009,0.999757502226733,-0.014428,-0.016332,-0.003170,0.135140,-0.053102,0.105860,-0.545654,-0.188965,-0.807617,0
358,237222676,0.999842331542872,-0.007420,-0.015770,-0.003401,0.123603,-0.087579,0.090567,-0.576660,-0.171875,-0.795166,0
359,237239343,0.999889714994687,0.001566,-0.014636,-0.001976,0.120832,-0.055836,0.072588,-0.603516,-0.173584,-0.775879,0
360,237256010,0.999898724597582,0.001132,-0.014141,-0.001139,0.134327,-0.024035,0.058188,-0.626953,-0.173828,-0.766357,0
361,237272677,0.999870270041016,0.001063,-0.015914,-0.002249,0.158326,-0.004388,0.055731,-0.655762,-0.177490,-0.750488,0
362,237289344,0.999842075269673,-0.001839,-0.017414,-0.003033,0.179838,-0.001033,0.062377,-0.683594,-0.180176,-0.730713,0
363,237306011,0.999837189923278,-0.002909,-0.017588,-0.002791,0.157668,-0.016650,0.060420,-0.712646,-0.177734,-0.709229,0
364,237322678,0.999829393913738,-0.002595,-0.018136,-0.002350,0.166547,-0.017962,0.054951,-0.741455,-0.174072,-0.686523,0
365,237339345,0.999816286138503,-0.003538,-0.018782,-0.001456,0.175103,-0.005607,0.054821,-0.774170,-0.173584,-0.666992,0
366,237356012,0.999808457197237,-0.003459,-0.019173,-0.001864,0.174253,-0.002006,0.049279,-0.803955,-0.168213,-0.638672,0
367,237372679,0.999807529262397,-0.005174,-0.018805,-0.002120,0.177006,0.014667,0.053162,-0.832764,-0.166992,-0.617920,0
368,237389346,0.999816538902605,-0.006714,-0.017746,-0.002625,0.169980,0.005106,0.044265,-0.856689,-0.161133,-0.591064,0
369,237406013,0.999825958224269,-0.006053,-0.017427,-0.002780,0.156376,-0.008814,0.035778,-0.885986,-0.155762,-0.563232,0
370,237422680,0.999812291830774,-0.008208,-0.017247,-0.003249,0.151318,-0.001975,0.027049,-0.907471,-0.149902,-0.536377,0
371,237439347,0.999842377059838,-0.002890,-0.017146,-0.003591,0.161060,0.020570,0.017204,-0.930420,-0.150146,-0.512939,0
372,237456014,0.999827991206887,-0.006634,-0.016879,-0.003883,0.153519,0.006730,0.004910,-0.951416,-0.147217,-0.485596,0
373,237472681,0.999824773316857,-0.006105,-0.017167,-0.004295,0.161077,-0.000722,-0.005376,-0.972412,-0.144775,-0.458740,0
374,237489348,0.999827858411401,-0.005208,-0.017210,-0.004578,0.172097,-0.001770,-0.003355,-0.992920,-0.147949,-0.429932,0
375,237506015,0.999845415367157,-0.003420,-0.016476,-0.005098,0.172204,-0.005939,-0.011706,-1.010742,-0.150391,-0.401123,0
376,237522682,0.999868220827110,-0.001363,-0.015493,-0.004653,0.173775,-0.001667,-0.007438,-1.026367,-0.157959,-0.372803,0
377,237539349,0.999855908344564,-0.000957,-0.016351,-0.004460,0.158569,0.011640,-0.013444,-1.048584,-0.167480,-0.349365,0
378,237556016,0.999837844427751,0.001172,-0.017471,-0.004203,0.157752,0.019930,-0.000773,-1.059814,-0.175537,-0.316406,0
379,237572683,0.999830568025025,0.003396,-0.017623,-0.004090,0.164209,0.019212,0.019374,-1.076172,-0.185059,-0.278076,0
380,237589350,0.999871838733503,0.006131,-0.014284,-0.003832,0.172877,0.010005,0.038877,-1.085693,-0.195068,-0.249756,0
381,237606017,0.999922351127279,0.008124,-0.009007,-0.002860,0.174723,0.021522,0.050632,-1.094971,-0.208008,-0.231934,0
382,237622684,0.999964704374208,0.007228,-0.003877,-0.001820,0.186462,0.040989,0.057827,-1.100098,-0.215332,-0.222412,0
383,237639351,0.999985535366447,0.005335,0.000681,0.000048,0.181935,0.013824,0.074577,-1.104492,-0.220703,-0.219971,0
384,237656018,0.999982585497787,0.005342,0.002378,0.000799,0.194748,0.017679,0.063027,-1.098145,-0.224854,-0.223389,0
385,237672685,0.999991316027071,0.002639,0.003185,0.000507,0.197348,0.045445,0.042802,-1.095703,-0.226807,-0.225342,0
386,237689352,0.999984489636070,-0.003760,0.003977,0.001033,0.188891,0.044208,0.021695,-1.093506,-0.221436,-0.234375,0
387,237706019,0.999966924781798,-0.005391,0.005891,0.001544,0.179331,0.035909,0.016786,-1.092041,-0.215576,-0.246338,0
388,237722686,0.999943508763005,-0.007481,0.007391,0.001547,0.177113,0.041719,0.030980,-1.089600,-0.206055,-0.257812,0
389,237739353,0.999923549430644,-0.007985,0.009245,0.001912,0.180555,0.033375,0.033513,-1.082520,-0.192383,-0.276123,0
390,237756020,0.999922003170204,-0.005921,0.010669,0.002664,0.182054,0.024609,0.019446,-1.070312,-0.185791,-0.297607,0
391,237772687,0.999919474767240,-0.003596,0.011708,0.003322,0.183770,0.015294,0.007750,-1.062256,-0.172607,-0.316406,0
392,237789354,0.999919539618823,-0.002008,0.011969,0.003691,0.179095,0.013084,-0.003246,-1.052979,-0.163330,-0.337891,0
393,237806021,0.999923248560488,-0.001060,0.011932,0.003163,0.172393,0.015881,-0.013992,-1.040039,-0.152832,-0.357910,0
394,237822688,0.999934946783449,-0.000454,0.011142,0.002399,0.164649,0.015186,-0.026770,-1.028320,-0.148193,-0.378174,0
395,237839355,0.999953555929067,-0.000190,0.009415,0.002051,0.156659,0.008811,-0.040155,-1.020020,-0.143066,-0.397705,0
396,237856022,0.999966599760573,0.001030,0.007851,0.002026,0.152490,-0.003843,-0.048151,-1.007568,-0.139160,-0.410156,0
397,237872689,0.999969653345134,0.002942,0.006976,0.001836,0.148609,-0.015658,-0.046111,-1.001709,-0.136475,-0.420410,0
398,237889356,0.999965834676354,0.005779,0.005599,0.001892,0.144078,-0.013113,-0.050950,-0.995850,-0.136475,-0.430908,0
399,237906023,0.999964152021429,0.007371,0.003875,0.001530,0.136209,0.002670,-0.053689,-0.991455,-0.142090,-0.439453,0
400,237922690,0.999967285518417,0.007667,0.002315,0.001133,0.132411,0.017238,-0.046874,-0.988037,-0.146484,-0.443848,0
401,237939357,0.999971595662524,0.007434,0.000832,0.000926,0.134842,0.027352,-0.040832,-0.985596,-0.153564,-0.445801,0
402,237956024,0.999978473265387,0.006493,-0.000433,0.000845,0.138999,0.033686,-0.034344,-0.988037,-0.159424,-0.446777,0
403,237972691,0.999983648465456,0.005456,-0.001503,0.000824,0.143162,0.033670,-0.027651,-0.987793,-0.167236,-0.445312,0
404,237989358,0.999984176554438,0.005066,-0.002314,0.000793,0.146346,0.038041,-0.022472,-0.990723,-0.168701,-0.441895,0
405,238006025,0.999984203226388,0.004748,-0.002926,0.000696,0.152095,0.036988,-0.017078,-0.996094,-0.176025,-0.437744,0
406,238022692,0.999985493596130,0.004323,-0.003125,0.000747,0.157847,0.036568,-0.010465,-1.000488,-0.182861,-0.430908,0
407,238039359,0.999989585795996,0.003061,-0.003197,0.001112,0.163598,0.033458,-0.006218,-1.002930,-0.182373,-0.423828,0
408,238056026,0.999990899232456,0.001678,-0.003535,0.001701,0.167587,0.031662,0.002672,-1.001953,-0.183350,-0.417969,0
409,238072693,0.999990759752602,0.000935,-0.003495,0.002322,0.165262,0.030976,0.009207,-1.011230,-0.180664,-0.415039,0
410,238089360,0.999992598123887,-0.000212,-0.003023,0.002371,0.162680,0.033727,0.017209,-1.010742,-0.179199,-0.406982,0
411,238106027,0.999988960063026,-0.002906,-0.003050,0.002082,0.161341,0.037406,0.016515,-1.016602,-0.171631,-0.402588,0
412,238122694,0.999979172865617,-0.005848,-0.002270,0.001516,0.164148,0.039690,0.020123,-1.019531,-0.166748,-0.397949,0
413,238139361,0.999968264731559,-0.007525,-0.002421,0.000995,0.161469,0.037559,0.016736,-1.020020,-0.158691,-0.393066,0
414,238156028,0.999950747525587,-0.009655,-0.002136,0.000843,0.168953,0.029611,0.025056,-1.022461,-0.147217,-0.390137,0
415,238172695,0.999929490521880,-0.011746,-0.001342,0.001113,0.166755,0.019438,0.026572,-1.025635,-0.133545,-0.387695,0
416,238189362,0.999922585219229,-0.012300,-0.001420,0.001228,0.170930,0.028057,0.014210,-1.025146,-0.117676,-0.387695,0
417,238206029,0.999913876699352,-0.012594,-0.003604,0.000804,0.171893,0.042556,-0.001187,-1.026611,-0.105225,-0.379395,0
418,238222696,0.999894976502290,-0.014114,-0.003194,0.000792,0.191850,0.020627,0.025139,-1.030029,-0.092285,-0.371338,0
419,238239363,0.999962766332017,-0.008432,-0.001734,0.000607,0.208637,-0.013630,0.068127,-1.032959,-0.082275,-0.365967,0
420,238256030,0.999991924718673,-0.003550,-0.001877,0.000162,0.194914,-0.015801,0.046343,-1.034424,-0.077637,-0.360352,0
421,238272697,0.999996315768860,-0.001629,-0.002171,-0.000003,0.168061,-0.018271,0.025101,-1.034912,-0.072266,-0.355957,0
422,238289364,0.999994066268234,-0.001553,-0.002967,0.000807,0.162819,-0.027700,0.004174,-1.034912,-0.069092,-0.351074,0
423,238306031,0.999990207376554,-0.001784,-0.003192,0.002493,0.163426,-0.027093,-0.010653,-1.038818,-0.065674,-0.343018,0
424,238322698,0.999987710013929,-0.001800,-0.003513,0.003000,0.162509,-0.030234,-0.017244,-1.042725,-0.058594,-0.336670,0
425,238339365,0.999985792611066,0.001200,-0.004228,0.003017,0.163186,-0.021852,-0.013190,-1.046143,-0.052490,-0.330078,0
426,238356032,0.999977217939018,0.004749,-0.004102,0.002486,0.170156,0.001721,-0.010306,-1.047119,-0.052979,-0.324219,0
427,238372699,0.999973371056089,0.006146,-0.003469,0.001857,0.173018,0.015503,-0.001596,-1.050537,-0.054932,-0.314697,0
428,238389366,0.999980747090746,0.005027,-0.003326,0.001472,0.171599,0.017910,0.004958,-1.053955,-0.056885,-0.312256,0
429,238406033,0.999989708363707,0.002910,-0.003101,0.001580,0.169666,0.013904,0.006973,-1.056396,-0.055176,-0.307373,0
430,238422700,0.999993903642987,0.001427,-0.002618,0.001817,0.164246,0.013250,0.009036,-1.058350,-0.054688,-0.301270,0
431,238439367,0.999994253835936,0.001697,-0.002504,0.001531,0.158290,0.002346,0.010724,-1.058838,-0.053223,-0.297363,0
432,238456034,0.999993986160515,0.002044,-0.002222,0.001706,0.171944,-0.003771,0.010300,-1.058838,-0.051514,-0.291748,0
433,238472701,0.999993525269509,0.002463,-0.001564,0.002106,0.175503,-0.007852,0.005442,-1.059326,-0.048584,-0.289307,0
434,238489368,0.999991608975612,0.003396,-0.000805,0.002145,0.169779,-0.018970,-0.001641,-1.061279,-0.047607,-0.286377,0
435,238506035,0.999989249820201,0.004136,-0.000091,0.002094,0.166035,-0.011458,-0.003785,-1.061279,-0.045166,-0.286865,0
436,238522702,0.999990990285211,0.003534,-0.000199,0.002343,0.167215,0.003523,-0.006727,-1.061279,-0.043701,-0.285400,0
437,238539369,0.999994532544967,0.002167,-0.000236,0.002487,0.165704,0.014352,-0.011514,-1.057861,-0.044189,-0.285889,0
438,238556036,0.999997028965179,0.000224,-0.000268,0.002412,0.166049,0.009759,-0.016111,-1.058350,-0.041260,-0.287354,0
439,238572703,0.999997129779485,-0.000542,-0.000368,0.002305,0.166326,-0.000886,-0.019752,-1.056885,-0.035645,-0.284912,0
440,238589370,0.999997168606895,-0.000064,-0.000660,0.002285,0.163982,-0.010900,-0.021394,-1.058838,-0.028320,-0.281006,0
441,238606037,0.999996397200968,0.000990,-0.000955,0.002305,0.160992,-0.022189,-0.020990,-1.057861,-0.025879,-0.279053,0
442,238622704,0.999993897745732,0.002148,-0.001403,0.002371,0.163173,-0.019935,-0.020957,-1.055908,-0.020752,-0.277100,0
443,238639371,0.999991631378012,0.002782,-0.001727,0.002453,0.166664,-0.020107,-0.018347,-1.060303,-0.021240,-0.278564,0
444,238656038,0.999990212830136,0.003148,-0.001918,0.002447,0.168112,-0.011644,-0.012058,-1.057373,-0.021240,-0.272949,0
445,238672705,0.999991129589620,0.002840,-0.002043,0.002345,0.165082,0.001118,-0.014406,-1.059326,-0.017334,-0.270996,0
446,238689372,0.999994273322986,0.001949,-0.001761,0.002133,0.164565,-0.000122,-0.011660,-1.059814,-0.014648,-0.266113,0
447,238706039,0.999995943277602,0.000662,-0.001874,0.002040,0.166698,-0.007113,-0.011303,-1.060791,-0.011719,-0.263672,0
448,238722706,0.999996442160726,0.000210,-0.001791,0.001965,0.166395,-0.014999,-0.014257,-1.062256,-0.006836,-0.258545,0
449,238739373,0.999996675719239,0.000429,-0.001747,0.001847,0.165312,-0.020997,-0.016379,-1.060791,-0.006836,-0.255127,0
450,238756040,0.999996592565621,0.001133,-0.001563,0.001757,0.164574,-0.021363,-0.015041,-1.062744,-0.005615,-0.249756,0
451,238772707,0.999996813203200,0.001389,-0.001285,0.001672,0.166105,-0.018195,-0.013485,-1.061768,-0.000732,-0.250244,0
452,238789374,0.999997361804850,0.001311,-0.000908,0.001653,0.166590,-0.013646,-0.013362,-1.062744,0.002686,-0.250732,0
453,238806041,0.999997708592297,0.001115,-0.000761,0.001661,0.165749,-0.015273,-0.015100,-1.061768,0.005127,-0.250244,0
454,238822708,0.999997903884832,0.001004,-0.000703,0.001640,0.165142,-0.019496,-0.022290,-1.061768,0.007812,-0.245605,0
455,238839375,0.999997835398579,0.000999,-0.000906,0.001585,0.164126,-0.018561,-0.025890,-1.061768,0.010254,-0.245605,0
456,238856042,0.999997529680297,0.001318,-0.001086,0.001423,0.161249,-0.018191,-0.028444,-1.061768,0.010742,-0.243164,0
457,238872709,0.999997041358153,0.001709,-0.001253,0.001194,0.162269,-0.020778,-0.026296,-1.060791,0.013184,-0.243164,0
458,238889376,0.999996612232931,0.001977,-0.001315,0.001067,0.163937,-0.021505,-0.024159,-1.062256,0.011230,-0.237305,0
459,238906043,0.999996900959644,0.001681,-0.001526,0.001023,0.163507,-0.017755,-0.018713,-1.065186,0.010254,-0.238770,0
460,238922710,0.999997201238205,0.001311,-0.001652,0.001072,0.161966,-0.019089,-0.015970,-1.062744,0.013672,-0.234863,0
461,238939377,0.999997812419487,0.000972,-0.001396,0.001217,0.164198,-0.021929,-0.008781,-1.065674,0.016357,-0.227783,0
462,238956044,0.999998904190616,0.000692,-0.000761,0.001065,0.167236,-0.022713,-0.007906,-1.064697,0.016357,-0.229248,0
463,238972711,0.999999228102458,0.000828,-0.000537,0.000754,0.164041,-0.027931,-0.013808,-1.067139,0.019287,-0.227783,0
464,238989378,0.999998238606017,0.001606,-0.000638,0.000732,0.162517,-0.033575,-0.013062,-1.063721,0.017334,-0.227295,0
465,239006045,0.999997999415369,0.001575,-0.000939,0.000800,0.162236,-0.033034,-0.017749,-1.064209,0.018311,-0.223877,0
466,239022712,0.999997200394044,0.001629,-0.001549,0.000739,0.159115,-0.029121,-0.021713,-1.066650,0.017822,-0.220459,0
467,239039379,0.999995585532351,0.002160,-0.002040,-0.000053,0.151654,-0.028479,-0.024303,-1.063721,0.016846,-0.219971,0
468,239056046,0.999995026780509,0.002048,-0.002394,-0.000144,0.161833,-0.024192,-0.020491,-1.069824,0.014648,-0.214844,0
469,239072713,0.999995432451303,0.001837,-0.002385,-0.000264,0.165422,-0.020208,-0.020567,-1.071777,0.013184,-0.211426,0
470,239089380,0.999994210841934,0.001904,-0.002809,-0.000244,0.162804,-0.020141,-0.025218,-1.072754,0.010742,-0.208984,0
471,239106047,0.999992263912389,0.002041,-0.003355,-0.000230,0.159585,-0.022345,-0.029765,-1.073730,0.012695,-0.201904,0
472,239122714,0.999990736748294,0.001828,-0.003885,-0.000308,0.161259,-0.022494,-0.031373,-1.076660,0.007324,-0.194580,0
473,239139381,0.999990548504923,0.001743,-0.003975,-0.000256,0.165555,-0.019756,-0.026665,-1.077637,0.005371,-0.187500,0
474,239156048,0.999992836776809,0.001599,-0.003420,-0.000271,0.170125,-0.019656,-0.014841,-1.078613,0.004639,-0.183594,0
475,239172715,0.999997057332401,0.000968,-0.002224,-0.000054,0.172660,-0.023519,-0.011042,-1.083496,0.004150,-0.176514,0
476,239189382,0.999999422428761,0.000216,-0.001043,0.000141,0.171746,-0.027405,-0.014907,-1.079590,0.005127,-0.173584,0
477,239206049,0.999999960041646,0.000048,-0.000003,0.000278,0.168877,-0.031016,-0.016749,-1.081543,0.004150,-0.174072,0
478,239222716,0.999999720297377,0.000333,0.000597,0.000304,0.166701,-0.034830,-0.016995,-1.081055,0.006592,-0.173096,0
479,239239383,0.999999601028943,0.000553,0.000610,0.000347,0.165374,-0.031224,-0.023651,-1.083496,0.004150,-0.176025,0
480,239256050,0.999999447662081,0.000477,0.000889,0.000296,0.164444,-0.028881,-0.029179,-1.081055,0.003662,-0.176514,0
481,239272717,0.999999178858374,0.000276,0.001227,0.000245,0.162908,-0.029498,-0.028315,-1.081055,0.006104,-0.181152,0
482,239289384,0.999999299735840,0.000117,0.001153,0.000239,0.161709,-0.028196,-0.024166,-1.076660,0.007080,-0.185059,0
483,239306051,0.999999282811840,-0.000364,0.001129,0.000164,0.162200,-0.025475,-0.024554,-1.077148,0.009033,-0.183105,0
484,239322718,0.999998713704317,-0.000959,0.001283,0.000088,0.162382,-0.026064,-0.025490,-1.078613,0.010986,-0.186523,0
485,239339385,0.999998602005406,-0.000762,0.001488,0.000005,0.162638,-0.025274,-0.023992,-1.080078,0.009521,-0.187500,0
486,239356052,0.999999043589522,-0.000451,0.001307,-0.000028,0.160945,-0.023072,-0.025500,-1.074219,0.012451,-0.189453,0
487,239372719,0.999999417808326,-0.000073,0.001071,-0.000115,0.158735,-0.026233,-0.027968,-1.075195,0.010742,-0.191406,0
488,239389386,0.999999186173948,0.000581,0.001118,-0.000200,0.160152,-0.031968,-0.026834,-1.075195,0.011230,-0.195557,0
489,239406053,0.999998738400623,0.001114,0.001063,-0.000390,0.157877,-0.031626,-0.030811,-1.074707,0.008789,-0.197021,0
490,239422720,0.999997559780759,0.002044,0.000526,-0.000653,0.158062,-0.031578,-0.040382,-1.071289,0.006836,-0.198486,0
491,239439387,0.999992560570923,0.003679,0.000679,-0.000939,0.159785,-0.038025,-0.041337,-1.073730,0.004395,-0.198975,0
492,239456054,0.999985632104221,0.005130,0.001109,-0.001090,0.166773,-0.030957,-0.032029,-1.077637,-0.003174,-0.205322,0
493,239472721,0.999983864452873,0.005192,0.002087,-0.000980,0.168578,-0.027987,-0.026084,-1.074707,-0.008057,-0.207764,0
494,239489388,0.999985372881259,0.004675,0.002614,-0.000751,0.168325,-0.022465,-0.023139,-1.073242,-0.012207,-0.213379,0
495,239506055,0.999986593343836,0.004166,0.002979,-0.000764,0.166158,-0.020101,-0.023827,-1.069824,-0.017090,-0.221191,0
496,239522722,0.999985686327507,0.003942,0.003497,-0.000926,0.165758,-0.024662,-0.022491,-1.069336,-0.019287,-0.229248,0
497,239539389,0.999983849746398,0.004282,0.003597,-0.001014,0.163321,-0.026760,-0.025507,-1.067383,-0.027832,-0.235596,0
498,239556056,0.999983620469490,0.004508,0.003410,-0.000897,0.165662,-0.019789,-0.025167,-1.064941,-0.031250,-0.245117,0
499,239572723,0.999987480938288,0.003748,0.003215,-0.000805,0.166165,-0.016005,-0.018591,-1.064941,-0.035889,-0.251221,0
500,239589390,0.999989949059675,0.003077,0.003177,-0.000734,0.164494,-0.014080,-0.008728,-1.058594,-0.041992,-0.260010,0
501,239606057,0.999987720948240,0.003349,0.003580,-0.000724,0.167423,-0.014613,-0.002315,-1.060547,-0.043945,-0.266113,0
502,239622724,0.999988756224250,0.003112,0.003518,-0.000658,0.166648,-0.020299,-0.004460,-1.057617,-0.046631,-0.274902,0
503,239639391,0.999985406545423,0.003751,0.003830,-0.000670,0.164397,-0.017005,-0.005284,-1.053223,-0.049072,-0.281494,0
504,239656058,0.999986479348396,0.003434,0.003823,-0.000796,0.164879,-0.015380,-0.003134,-1.050293,-0.053223,-0.289795,0
505,239672725,0.999994333984044,0.001254,0.002982,-0.000933,0.165041,-0.022184,-0.001376,-1.049316,-0.062012,-0.293701,0
506,239689392,0.999997231111911,0.000727,0.002132,-0.000680,0.162195,-0.029245,-0.007431,-1.046387,-0.060059,-0.298828,0
507,239706059,0.999997307388955,0.001058,0.002011,-0.000471,0.167084,-0.018261,-0.000627,-1.044434,-0.061768,-0.304688,0
508,239722726,0.999997628807492,0.000202,0.002100,-0.000539,0.168043,-0.010844,0.007749,-1.045654,-0.062744,-0.307129,0
509,239739393,0.999995915807806,-0.001921,0.002017,-0.000640,0.167813,-0.008295,0.009267,-1.042725,-0.061768,-0.311768,0
510,239756060,0.999989976591703,-0.004042,0.001846,-0.000545,0.166354,-0.005300,0.002382,-1.039062,-0.062744,-0.310791,0
511,239772727,0.999973511046359,-0.007055,0.001761,-0.000313,0.164769,-0.006117,-0.001482,-1.043213,-0.057373,-0.314697,0
512,239789394,0.999955809394064,-0.009232,0.001768,-0.000130,0.165311,-0.012833,-0.003353,-1.036865,-0.049561,-0.314209,0
513,239806061,0.999940739390348,-0.010794,0.001415,0.000050,0.166166,-0.013582,-0.006695,-1.035400,-0.037598,-0.320312,0
514,239822728,0.999933591633914,-0.011423,0.001500,0.000262,0.163938,-0.016561,-0.004391,-1.036377,-0.026367,-0.320312,0
515,239839395,0.999931358494388,-0.011646,0.001281,0.000113,0.164680,-0.021274,-0.003192,-1.033936,-0.017822,-0.318359,0
516,239856062,0.999946379375512,-0.010260,0.001276,-0.000582,0.154362,-0.022769,0.001658,-1.030762,-0.007568,-0.316895,0
517,239872729,0.999953818347820,-0.009528,0.000999,-0.000759,0.176035,-0.013606,0.015093,-1.030762,-0.001465,-0.316895,0
518,239889396,0.999950049790887,-0.009839,0.001609,-0.000705,0.182016,-0.009362,0.021618,-1.029785,0.004883,-0.316406,0
519,239906063,0.999942480846361,-0.010512,0.002093,-0.000399,0.185173,-0.002621,0.034116,-1.030273,0.017822,-0.314941,0
520,239922730,0.999930197235226,-0.011410,0.003065,-0.000121,0.185316,0.010896,0.042780,-1.025879,0.023682,-0.316895,0
521,239939397,0.999875761910360,-0.015094,0.004521,-0.000442,0.187980,0.033705,0.048877,-1.024902,0.035400,-0.318848,0
522,239956064,0.999646504127968,-0.025768,0.006344,-0.001625,0.183733,0.127993,0.033234,-1.016846,0.056152,-0.322021,0
523,239972731,0.999222635669963,-0.038533,0.007142,-0.004279,0.167877,0.113503,-0.006774,-1.014404,0.077881,-0.317383,0
524,239989398,0.999366692041901,-0.033872,0.009310,-0.005678,0.177710,0.073443,-0.021475,-1.009521,0.103760,-0.312500,0
525,240006065,0.999443801269794,-0.029600,0.013318,-0.007651,0.203590,0.133418,-0.009178,-1.000488,0.119873,-0.315674,0
526,240022732,0.999341662301302,-0.032423,0.013804,-0.008629,0.219000,0.115681,0.009325,-0.991699,0.132812,-0.320557,0
527,240039399,0.999243524151284,-0.036029,0.012335,-0.007881,0.258443,0.041184,0.000690,-0.983398,0.148438,-0.320557,0
528,240056066,0.999331697007236,-0.032842,0.014823,-0.006154,0.263641,-0.009951,0.013534,-0.973633,0.165771,-0.320068,0
529,240072733,0.999535631824822,-0.024515,0.017315,-0.005265,0.247401,-0.026546,0.031620,-0.961914,0.182373,-0.329590,0
530,240089400,0.999688167662055,-0.015614,0.018438,-0.006312,0.216658,0.008497,0.024391,-0.950439,0.188721,-0.339600,0
531,240106067,0.999756014177235,-0.011039,0.016527,-0.009640,0.189439,0.053067,0.012788,-0.940186,0.185059,-0.356445,0
532,240122734,0.999708342425495,-0.013017,0.015742,-0.012883,0.186540,0.058385,0.005627,-0.932373,0.177490,-0.368408,0
533,240139401,0.999691980300473,-0.014093,0.015093,-0.013768,0.186080,0.046641,-0.006665,-0.926758,0.166504,-0.375732,0
534,240156068,0.999683290266577,-0.015044,0.015050,-0.013434,0.176577,0.039635,-0.013697,-0.919434,0.158447,-0.384277,0
535,240172735,0.999699333251905,-0.015016,0.014368,-0.013012,0.179021,0.018540,-0.014690,-0.913086,0.154297,-0.394287,0
536,240189402,0.999701462056409,-0.015404,0.013958,-0.012841,0.173889,0.012361,-0.020057,-0.908691,0.146240,-0.403076,0
537,240206069,0.999694011536620,-0.016492,0.012945,-0.013128,0.154109,0.025533,-0.025592,-0.903320,0.145264,-0.412109,0
538,240222736,0.999689353834251,-0.017566,0.011490,-0.013439,0.140772,0.018881,-0.024366,-0.895508,0.137207,-0.416504,0
539,240239403,0.999694501812768,-0.017564,0.010675,-0.013728,0.129024,0.005266,-0.009251,-0.891602,0.134277,-0.418945,0
540,240256070,0.999719041820376,-0.016678,0.009649,-0.013805,0.117247,-0.017035,0.000613,-0.887695,0.131104,-0.423584,0
541,240272737,0.999802133530935,-0.012635,0.007063,-0.013644,0.109374,-0.042393,0.000702,-0.887207,0.120361,-0.426514,0
542,240289404,0.999862875289260,-0.007675,0.004508,-0.013964,0.098228,-0.053096,0.000133,-0.888672,0.108887,-0.425049,0
543,240306071,0.999895586404712,-0.003705,0.001897,-0.013838,0.099450,-0.045811,-0.000598,-0.892822,0.089111,-0.427490,0
544,240322738,0.999921451325227,-0.000771,-0.000196,-0.012508,0.103005,-0.031078,0.001510,-0.898682,0.069824,-0.425781,0
545,240339405,0.999939649989206,0.000749,-0.002420,-0.010690,0.098686,-0.009496,0.012250,-0.905029,0.050537,-0.422852,0
546,240356072,0.999947952490206,0.000093,-0.004402,-0.009204,0.099518,0.012148,0.017765,-0.910156,0.033936,-0.415771,0
547,240372739,0.999948704974168,-0.001454,-0.005772,-0.008195,0.101623,0.021088,0.019946,-0.917969,0.020264,-0.406738,0
548,240389406,0.999943102636697,-0.002388,-0.007320,-0.007383,0.102477,0.024997,0.023135,-0.924805,0.010498,-0.396973,0
549,240406073,0.999936149833609,-0.002950,-0.008669,-0.006622,0.105534,0.031178,0.020697,-0.935791,0.004150,-0.385986,0
550,240422740,0.999931609857436,-0.002464,-0.009832,-0.005835,0.114038,0.037330,0.018154,-0.946533,-0.006836,-0.368896,0
551,240439407,0.999937608189910,-0.000792,-0.010181,-0.004528,0.131065,0.039664,0.022590,-0.954834,-0.014160,-0.352539,0
552,240456074,0.999950331614850,-0.000563,-0.009471,-0.003053,0.141196,0.058707,0.039248,-0.960449,-0.021973,-0.339600,0
553,240472741,0.999942416570493,-0.004118,-0.009747,-0.001788,0.145313,0.077711,0.024675,-0.971680,-0.022705,-0.324219,0
554,240489408,0.999932291277337,-0.007960,-0.008421,-0.001073,0.154331,0.076504,0.040987,-0.975098,-0.023438,-0.308838,0
555,240506075,0.999881345608196,-0.012971,-0.008303,-0.000348,0.165186,0.070408,0.037976,-0.979492,-0.016846,-0.292969,0
556,240522742,0.999827762072783,-0.016787,-0.007905,0.000389,0.168612,0.053446,0.044857,-0.987793,-0.004395,-0.279053,0
557,240539409,0.999781244344090,-0.019707,-0.006927,0.001047,0.172591,0.033459,0.052895,-0.985840,0.010742,-0.266602,0
558,240556076,0.999782012932442,-0.019691,-0.006715,0.001757,0.165944,0.012594,0.062882,-0.991211,0.024170,-0.245117,0
559,240572743,0.999787320287707,-0.019201,-0.006855,0.003102,0.161307,-0.000959,0.066029,-0.995117,0.037842,-0.234863,0
560,240589410,0.999801771873890,-0.017965,-0.007419,0.004315,0.159079,-0.003676,0.069181,-0.996094,0.057373,-0.214844,0
561,240606077,0.999810792694591,-0.017250,-0.007168,0.005425,0.147126,-0.000231,0.081701,-0.995117,0.072266,-0.197998,0
562,240622744,0.999757639123353,-0.019842,-0.007205,0.006250,0.169622,-0.005291,0.104860,-0.997070,0.094727,-0.177246,0
563,240639411,0.999879482079761,-0.014121,-0.004947,0.004141,0.233903,0.058092,0.177140,-0.996582,0.114746,-0.163330,0
564,240656078,0.999967408150260,-0.007281,0.003281,0.001183,0.306467,0.122757,0.354570,-0.991211,0.118652,-0.157471,0
565,240672745,0.999932172080320,-0.011239,-0.001126,0.002841,0.233941,0.103064,0.294466,-0.989746,0.123535,-0.156006,0
566,240689412,0.999683908418300,-0.023284,-0.007831,0.005349,0.164695,0.061359,0.079750,-0.991455,0.134277,-0.131104,0
567,240706079,0.999259893749166,-0.037022,-0.007356,0.007413,0.124392,0.035966,-0.065547,-0.992920,0.157959,-0.097168,0
568,240722746,0.999319875910245,-0.035276,-0.005867,0.008998,0.068477,0.009929,-0.120023,-0.986572,0.183594,-0.062500,0
569,240739413,0.999586540010223,-0.027303,-0.007736,0.004630,0.103878,-0.125107,-0.046129,-0.982910,0.205078,-0.032715,0
570,240756080,0.999920739938214,-0.010335,-0.006646,0.002744,0.205825,-0.236495,-0.085810,-0.980469,0.208252,-0.008301,0
571,240772747,0.999915956937559,0.009623,-0.007988,0.003417,0.209131,-0.118756,-0.053053,-0.982910,0.212402,-0.000244,0
572,240789414,0.999850292286936,0.013697,-0.009614,0.004399,0.209761,0.010849,-0.025887,-0.981445,0.217041,0.009521,0
573,240806081,0.999913741439361,0.008016,-0.009345,0.004574,0.173145,0.064027,-0.001742,-0.978271,0.220459,0.016602,0
574,240822748,0.999946378796037,-0.002394,-0.009416,0.003585,0.163976,0.056637,0.000685,-0.979736,0.224609,0.030518,0
575,240839415,0.999901689897908,-0.010534,-0.008903,0.002528,0.169103,0.013543,0.000840,-0.977295,0.229736,0.052734,0
576,240856082,0.999874065448546,-0.013084,-0.008758,0.001989,0.167201,-0.012257,-0.005624,-0.973633,0.231934,0.075195,0
577,240872749,0.999881766498873,-0.012364,-0.009071,0.001141,0.158581,-0.035393,-0.000931,-0.972656,0.236084,0.101562,0
578,240889416,0.999906760863167,-0.010203,-0.009048,0.000709,0.157322,-0.052191,0.016341,-0.974854,0.237793,0.122559,0
579,240906083,0.999927485082622,-0.008126,-0.008880,0.000387,0.158765,-0.040840,0.027718,-0.974365,0.236084,0.141846,0
580,240922750,0.999935005034906,-0.007616,-0.008480,0.000263,0.162342,-0.033727,0.043634,-0.973633,0.236816,0.159668,0
581,240939417,0.999945461692774,-0.006670,-0.008026,0.000404,0.168236,-0.034493,0.054956,-0.971680,0.235107,0.177246,0
582,240956084,0.999947810192443,-0.006294,-0.008039,0.000366,0.166171,-0.023888,0.048237,-0.969482,0.234619,0.195557,0
583,240972751,0.999943184626394,-0.006871,-0.008147,0.000218,0.159588,-0.021127,0.034195,-0.969482,0.235352,0.216553,0
584,240989418,0.999941449863146,-0.007700,-0.007599,0.000262,0.163639,-0.030104,0.025236,-0.965332,0.230713,0.232422,0
585,241006085,0.999944055224528,-0.008145,-0.006749,0.000065,0.169702,-0.035068,0.021010,-0.961426,0.229736,0.247803,0
586,241022752,0.999950597641295,-0.007516,-0.006505,-0.000004,0.164302,-0.036824,0.013601,-0.957275,0.226562,0.266846,0
587,241039419,0.999955244031791,-0.006448,-0.006923,0.000068,0.161421,-0.034512,0.003405,-0.956787,0.225830,0.283691,0
588,241056086,0.999956427646540,-0.006132,-0.007039,0.000042,0.161324,-0.029006,-0.008357,-0.953125,0.219482,0.296631,0
589,241072753,0.999956297994861,-0.005584,-0.007498,-0.000096,0.157742,-0.033822,-0.017022,-0.949219,0.215088,0.317139,0
590,241089420,0.999964606466767,-0.003996,-0.007389,-0.000465,0.159404,-0.041522,-0.017303,-0.946045,0.212402,0.330078,0
591,241106087,0.999971254411926,-0.002030,-0.007276,-0.000653,0.162490,-0.037204,-0.016640,-0.942139,0.210938,0.346436,0
592,241122754,0.999971902565365,-0.001183,-0.007369,-0.000697,0.161001,-0.034534,-0.016717,-0.938477,0.204590,0.357422,0
593,241139421,0.999972054441208,-0.000442,-0.007420,-0.000798,0.159534,-0.044849,-0.017097,-0.934082,0.203369,0.370850,0
594,241156088,0.999973006035079,0.000676,-0.007284,-0.000689,0.159286,-0.041661,-0.015496,-0.932129,0.203613,0.384277,0
595,241172755,0.999973845688514,0.000912,-0.007149,-0.000609,0.153917,-0.034721,-0.017566,-0.924561,0.199219,0.393799,0
596,241189422,0.999970451828716,0.001552,-0.007491,-0.000757,0.149191,-0.024984,-0.020672,-0.918213,0.193848,0.405273,0
597,241206089,0.999970135881008,0.001660,-0.007489,-0.000940,0.152052,-0.009016,-0.021016,-0.916016,0.195801,0.416504,0
598,241222756,0.999971807809066,0.000802,-0.007361,-0.001247,0.154353,0.003548,-0.021174,-0.910645,0.192139,0.429443,0
599,241239423,0.999967308453499,-0.000976,-0.007874,-0.001557,0.157802,0.005645,-0.034061,-0.905518,0.188721,0.440918,0
600,241256090,0.999959457551293,-0.001683,-0.008656,-0.001824,0.156222,-0.004046,-0.042775,-0.897217,0.183350,0.454834,0
601,241272757,0.999947549277672,-0.001115,-0.009889,-0.002422,0.154445,-0.020645,-0.052044,-0.891602,0.177490,0.469971,0
602,241289424,0.999938635914687,-0.000148,-0.010710,-0.002829,0.164285,-0.024203,-0.043459,-0.882568,0.170410,0.487305,0
603,241306091,0.999941436796593,0.002050,-0.010257,-0.002778,0.176124,-0.019063,-0.019421,-0.878174,0.167969,0.501221,0
604,241322758,0.999949854943369,0.002343,-0.009433,-0.002411,0.173947,0.002147,0.004819,-0.868652,0.161133,0.517090,0
605,241339425,0.999964410139010,-0.001283,-0.008051,-0.002172,0.172453,0.004882,0.010962,-0.861816,0.158203,0.526611,0
606,241356092,0.999959734634905,-0.004334,-0.007560,-0.002144,0.183475,0.002285,-0.002165,-0.852295,0.152344,0.541016,0
607,241372759,0.999959515063825,-0.005296,-0.006964,-0.002105,0.181273,-0.025115,-0.006275,-0.845215,0.140137,0.555176,0
608,241389426,0.999967591442008,-0.003724,-0.006801,-0.002166,0.175393,-0.056743,0.002396,-0.841309,0.130859,0.568115,0
609,241406093,0.999981065475289,-0.000445,-0.005820,-0.001948,0.179548,-0.055706,0.020671,-0.832764,0.123535,0.581055,0
610,241422760,0.999989335216435,0.001529,-0.003688,-0.002321,0.192793,-0.042409,0.047279,-0.827393,0.118652,0.585938,0
611,241439427,0.999995355098325,0.000694,-0.000910,-0.002825,0.211311,-0.029554,0.071582,-0.823975,0.113770,0.588867,0
612,241456094,0.999992509534675,-0.002430,0.001858,-0.002372,0.224177,-0.003273,0.093692,-0.821289,0.103516,0.591064,0
613,241472761,0.999976172281544,-0.005435,0.003428,-0.002521,0.209017,0.026602,0.084441,-0.820312,0.092041,0.586914,0
614,241489428,0.999927924757260,-0.010033,0.005474,-0.003676,0.237699,0.037159,0.064325,-0.822754,0.074707,0.591553,0
615,241506095,0.999874227826593,-0.011911,0.009239,-0.004929,0.239833,0.030951,0.062674,-0.831299,0.050049,0.588135,0
616,241522762,0.999824298082736,-0.012987,0.012424,-0.005325,0.266353,-0.036995,0.044200,-0.837646,0.027588,0.577148,0
617,241539429,0.999815811613303,-0.004572,0.018612,-0.001008,0.298040,-0.163984,-0.003380,-0.850586,0.011230,0.562256,0
618,241556096,0.999618700795221,0.006188,0.026772,0.002722,0.285193,-0.203787,-0.059622,-0.867920,0.010986,0.528564,0
619,241572763,0.999382012469784,0.015481,0.031428,0.002868,0.268371,-0.147281,-0.110761,-0.891602,0.020020,0.486084,0
620,241589430,0.999308730383388,0.020606,0.030824,0.002708,0.245589,-0.084199,-0.136130,-0.911133,0.032959,0.437256,0
621,241606097,0.999292710799980,0.022964,0.029715,0.001929,0.219711,-0.034857,-0.125378,-0.929199,0.047363,0.390625,0
622,241622764,0.999251055807849,0.023499,0.030695,0.001725,0.238753,-0.022231,-0.070916,-0.945312,0.061523,0.334717,0
623,241639431,0.999452236489273,0.019344,0.026756,0.002262,0.235085,-0.010972,-0.085130,-0.956543,0.072021,0.287598,0
624,241656098,0.999556683966681,0.014755,0.025762,0.002240,0.189427,-0.033442,-0.103344,-0.967041,0.077881,0.242188,0
625,241672765,0.999583837322964,0.013083,0.025378,0.004120,0.172580,-0.064078,-0.079802,-0.970703,0.088379,0.194824,0
626,241689432,0.999655328843211,0.012420,0.022460,0.005524,0.162004,-0.060199,-0.085523,-0.974609,0.096924,0.155029,0
627,241706099,0.999640116087079,0.015888,0.020566,0.006651,0.171032,-0.075595,-0.100372,-0.973389,0.109863,0.118652,0
628,241722766,0.999623554293931,0.018564,0.018894,0.007151,0.161631,-0.054553,-0.102201,-0.968262,0.122559,0.075439,0
629,241739433,0.999628836964501,0.020259,0.016832,0.006960,0.134407,-0.050679,-0.097149,-0.960205,0.130615,0.038086,0
630,241756100,0.999652255844255,0.021389,0.014273,0.005844,0.120860,-0.024334,-0.093571,-0.958984,0.139648,0.002686,0
631,241772767,0.999687539890130,0.021562,0.011719,0.004752,0.106971,-0.009047,-0.090163,-0.951172,0.141113,-0.032471,0
632,241789434,0.999714880877303,0.021890,0.008636,0.004052,0.098491,0.008167,-0.084332,-0.947998,0.143799,-0.058838,0
633,241806101,0.999789762989629,0.019486,0.005401,0.003396,0.090646,0.026064,-0.074567,-0.941650,0.141113,-0.077393,0
634,241822768,0.999824262607546,0.018430,0.001994,0.002791,0.084743,0.038877,-0.063203,-0.941406,0.138428,-0.095215,0
635,241839435,0.999878891991512,0.015372,-0.001120,0.002157,0.091001,0.056362,-0.040959,-0.938965,0.137451,-0.100098,0
636,241856102,0.999935406685721,0.010920,-0.002462,0.001970,0.107070,0.058425,-0.024144,-0.940430,0.135498,-0.105225,0
637,241872769,0.999961639488462,0.007878,-0.003217,0.002076,0.116936,0.059252,-0.016103,-0.941895,0.136963,-0.102539,0
638,241889436,0.999981826026936,0.004821,-0.003113,0.001849,0.127362,0.063723,0.000869,-0.942383,0.137939,-0.102539,0
639,241906103,0.999992161672211,0.002814,-0.001311,0.002458,0.140408,0.053470,0.024907,-0.940430,0.141846,-0.101074,0
640,241922770,0.999983814726799,0.004381,0.001016,0.003485,0.148188,0.020442,0.054968,-0.938965,0.142822,-0.104736,0
641,241939437,0.999961046753529,0.007561,0.002405,0.003867,0.154261,0.004052,0.081139,-0.932129,0.146240,-0.110107,0
642,241956104,0.999961576024224,0.006929,0.002228,0.004886,0.158851,0.013758,0.091327,-0.932129,0.151367,-0.122559,0
643,241972771,0.999978076085384,0.001371,0.002338,0.006042,0.164644,-0.000790,0.102594,-0.931152,0.156006,-0.125000,0
644,241989438,0.999964106229487,-0.001818,0.002973,0.007723,0.159496,-0.029655,0.121810,-0.921143,0.167725,-0.131592,0
645,242006105,0.999939014981651,-0.000498,0.003380,0.010502,0.142241,-0.084025,0.140965,-0.913818,0.182861,-0.133057,0
646,242022772,0.999937351798345,0.001103,0.001523,0.011034,0.139307,-0.109531,0.154676,-0.904541,0.201172,-0.139160,0
647,242039439,0.999969874128769,0.000992,-0.002802,0.007170,0.158820,-0.064326,0.137920,-0.899170,0.213867,-0.138184,0
648,242056106,0.999981045205067,0.004674,-0.001566,0.003689,0.167310,-0.029971,0.130470,-0.895264,0.219482,-0.135254,0
649,242072773,0.999972552136329,0.006797,-0.001092,0.002738,0.137445,-0.023932,0.100775,-0.894287,0.219971,-0.141113,0
650,242089440,0.999973979163872,0.004736,0.004894,0.002380,0.160459,-0.019199,0.121897,-0.889160,0.224121,-0.150635,0
651,242106107,0.999894668769576,-0.002509,-0.014213,0.001536,-0.050739,-0.088087,-0.067870,-0.885010,0.226807,-0.141113,0
652,242122774,0.999634006066555,0.004845,-0.026571,-0.001532,0.244246,0.005288,-0.233531,-0.902100,0.226318,-0.101318,0
653,242139441,0.999639154496587,0.026559,0.003920,-0.000903,0.348697,0.051538,0.078014,-0.905029,0.214355,-0.111328,0
654,242156108,0.999188840525712,0.040255,0.000505,-0.000988,0.259214,0.095296,0.324786,-0.904053,0.196533,-0.145508,0
655,242172775,0.999597819460058,0.015234,-0.023875,-0.001459,0.242852,0.333490,0.061496,-0.908936,0.180908,-0.130127,0
656,242189442,0.999505739615553,-0.028368,-0.013238,0.002885,0.179888,0.173395,-0.081795,-0.915039,0.190186,-0.094238,0
657,242206109,0.999375688300840,-0.034850,-0.005412,0.002095,0.086046,-0.065167,-0.111760,-0.917969,0.210938,-0.057129,0
658,242222776,0.999614467035883,-0.025765,-0.010106,0.002228,0.105460,-0.216039,-0.117121,-0.917236,0.224854,-0.020752,0
659,242239443,0.999909100152281,-0.006388,-0.011793,0.001382,0.181951,-0.181831,-0.108213,-0.916748,0.232910,0.001709,0
660,242256110,0.999898950389594,0.005920,-0.012905,-0.000700,0.202062,-0.141416,-0.065558,-0.920898,0.229736,0.019043,0
661,242272777,0.999774603260073,0.016426,-0.013448,0.000276,0.176584,-0.053406,-0.027247,-0.919434,0.228760,0.029541,0
662,242289444,0.999717991076116,0.019890,-0.012971,0.000234,0.157788,0.025276,-0.002774,-0.922363,0.225342,0.032959,0
663,242306111,0.999800381190139,0.015776,-0.012245,-0.000610,0.166481,0.059486,0.003194,-0.923828,0.219482,0.039062,0
664,242322778,0.999914745483883,0.004636,-0.012196,-0.000526,0.171224,0.069477,-0.003022,-0.923096,0.219238,0.053955,0
665,242339445,0.999917050957239,-0.004492,-0.012071,0.000057,0.163228,0.019351,-0.003218,-0.925537,0.219238,0.072266,0
666,242356112,0.999902158417435,-0.006377,-0.012448,0.000216,0.158559,-0.008173,0.002195,-0.929443,0.224121,0.098145,0
667,242372779,0.999903761086499,-0.006770,-0.012109,-0.000088,0.158950,-0.012431,0.005316,-0.924805,0.221436,0.119629,0
668,242389446,0.999907734328753,-0.006402,-0.011971,-0.000474,0.160802,-0.015676,0.008865,-0.926514,0.224121,0.145508,0
669,242406113,0.999913531045169,-0.005177,-0.012063,-0.000779,0.163786,-0.012645,0.011465,-0.923584,0.220459,0.165771,0
670,242422780,0.999911819517604,-0.004988,-0.012257,-0.001113,0.163313,-0.004818,0.010255,-0.922852,0.219727,0.189697,0
671,242439447,0.999909156978079,-0.006050,-0.011988,-0.001174,0.158811,-0.007893,0.008471,-0.921875,0.216797,0.210205,0
672,242456114,0.999906517690321,-0.006034,-0.012223,-0.001076,0.160834,-0.016347,0.003544,-0.917236,0.213623,0.230957,0
673,242472781,0.999908118116391,-0.004808,-0.012634,-0.001006,0.161485,-0.024805,-0.005283,-0.914551,0.212402,0.256348,0
674,242489448,0.999907820520101,-0.003087,-0.013191,-0.000904,0.158377,-0.032447,-0.018384,-0.909180,0.209229,0.275879,0
675,242506115,0.999900735840249,-0.000839,-0.014041,-0.000816,0.155154,-0.030886,-0.031920,-0.906006,0.207520,0.300049,0
676,242522782,0.999891404603620,0.000287,-0.014697,-0.001051,0.153365,-0.024968,-0.038346,-0.898926,0.204102,0.321045,0
677,242539449,0.999885258775928,0.001299,-0.015030,-0.001374,0.150123,-0.018971,-0.038333,-0.896484,0.205811,0.340088,0
678,242556116,0.999879312181828,0.000772,-0.015467,-0.001236,0.166453,-0.021334,-0.018791,-0.887451,0.204590,0.360840,0
679,242572783,0.999884698900118,-0.000364,-0.015157,-0.000848,0.168007,-0.018174,-0.004012,-0.882080,0.202148,0.381348,0
680,242589450,0.999900150151994,-0.001332,-0.014047,-0.000766,0.171203,-0.003908,0.014007,-0.873047,0.199463,0.403564,0
681,242606117,0.999916876001181,-0.003626,-0.012318,-0.001168,0.175787,-0.005103,0.025838,-0.866455,0.201172,0.422607,0
682,242622784,0.999926316933591,-0.005419,-0.010751,-0.001554,0.187607,-0.019013,0.016100,-0.856934,0.192383,0.440430,0
683,242639451,0.999941219444477,-0.005120,-0.009435,-0.001525,0.198389,-0.029340,0.008315,-0.850098,0.187744,0.457031,0
684,242656118,0.999943977743287,-0.004671,-0.009364,-0.001595,0.187108,-0.046772,0.005295,-0.844971,0.183350,0.469971,0
685,242672785,0.999956457857529,-0.004282,-0.007989,-0.002220,0.196697,-0.046013,0.004225,-0.837158,0.177002,0.484863,0
686,242689452,0.999976356658232,-0.004359,-0.004890,-0.002092,0.221609,-0.038901,0.011458,-0.836426,0.168701,0.494873,0
687,242706119,0.999985667398076,-0.005168,0.000064,-0.001399,0.244620,-0.044706,0.031828,-0.829102,0.161377,0.495850,0
688,242722786,0.999962489791294,-0.006153,0.005988,-0.001145,0.251004,-0.041705,0.050072,-0.829102,0.158691,0.493896,0
689,242739453,0.999968895623530,-0.004002,0.006452,-0.002138,0.219789,-0.023360,0.032160,-0.830078,0.152832,0.486328,0
690,242756120,0.999965146254238,-0.001822,0.006901,-0.004332,0.242781,0.025032,0.042429,-0.836426,0.145264,0.478027,0
691,242772787,0.999930251419804,-0.003497,0.010110,-0.005005,0.229372,0.046395,0.059124,-0.841309,0.135254,0.466553,0
692,242789454,0.999894369600287,-0.006813,0.012392,-0.003356,0.234139,0.018666,0.052248,-0.843018,0.128662,0.453125,0
693,242806121,0.999846715840969,-0.008067,0.015532,0.000458,0.243006,-0.065496,0.000179,-0.849854,0.121582,0.439209,0
694,242822788,0.999769328922647,-0.006494,0.020064,0.004067,0.252700,-0.079720,-0.079881,-0.853271,0.122314,0.416260,0
695,242839455,0.999703190652099,-0.003382,0.023553,0.005232,0.241842,-0.035810,-0.125792,-0.858398,0.127197,0.388916,0
696,242856122,0.999658953392754,0.003417,0.025410,0.004965,0.226163,-0.017493,-0.121258,-0.863525,0.134033,0.355469,0
697,242872789,0.999618729108926,0.008011,0.026007,0.004675,0.205936,0.020390,-0.099748,-0.871582,0.142822,0.322754,0
698,242889456,0.999610382496960,0.006611,0.026510,0.005711,0.216068,0.007167,-0.069498,-0.873047,0.153076,0.278809,0
699,242906123,0.999655445078941,0.004916,0.024851,0.006873,0.218584,-0.014081,-0.075460,-0.875732,0.164307,0.249512,0
700,242922790,0.999696057513394,0.005346,0.022984,0.007139,0.203756,0.003510,-0.088269,-0.872070,0.178223,0.213135,0
701,242939457,0.999690129052086,0.006806,0.022913,0.006951,0.169926,0.010229,-0.085183,-0.872803,0.188232,0.181396,0
702,242956124,0.999699505247593,0.008958,0.021619,0.007301,0.158521,0.020075,-0.075498,-0.871094,0.199219,0.149414,0
703,242972791,0.999729265899256,0.009438,0.020147,0.006813,0.147948,0.027129,-0.076047,-0.864990,0.211670,0.115234,0
704,242989458,0.999761732090241,0.009299,0.018821,0.005982,0.140598,0.023190,-0.074931,-0.862061,0.219238,0.085693,0
705,243006125,0.999798277484594,0.008534,0.017482,0.004998,0.126710,0.015824,-0.077431,-0.858887,0.228271,0.057861,0
706,243022792,0.999847049202066,0.007770,0.015130,0.004071,0.121682,0.007603,-0.078932,-0.852783,0.234375,0.032471,0
707,243039459,0.999880696540464,0.008109,0.012640,0.003612,0.110445,0.006056,-0.078144,-0.850342,0.238770,0.011475,0
708,243056126,0.999918541203744,0.006891,0.010329,0.002955,0.094139,0.016022,-0.075270,-0.844238,0.242432,-0.005859,0
709,243072793,0.999948480490446,0.005850,0.007888,0.002568,0.085311,0.013995,-0.073694,-0.842285,0.244141,-0.023193,0
710,243089460,0.999967951727380,0.005759,0.005045,0.002341,0.086246,0.018253,-0.078257,-0.838867,0.244629,-0.031250,0
711,243106127,0.999986387702358,0.004122,0.002706,0.001706,0.093445,0.028398,-0.074988,-0.838379,0.247559,-0.036133,0
712,243122794,0.999997096938687,0.001647,0.001481,0.000948,0.097946,0.029282,-0.057449,-0.835938,0.245850,-0.043701,0
713,243139461,0.999999311025577,0.000865,0.000785,0.000112,0.085963,0.031017,-0.040334,-0.837646,0.250488,-0.041748,0
714,243156128,0.999998025237501,0.001708,0.000657,-0.000774,0.097488,0.025247,-0.003080,-0.836914,0.245850,-0.042725,0
715,243172795,0.999988082161581,0.003411,0.003384,-0.000865,0.127738,-0.019250,0.039227,-0.836914,0.240479,-0.048096,0
716,243189462,0.999970930723632,0.005704,0.004907,0.001233,0.158994,-0.049024,0.064957,-0.833740,0.244385,-0.056641,0
717,243206129,0.999902544416270,0.012892,0.003191,0.004302,0.181699,-0.051746,0.108056,-0.832764,0.241699,-0.070557,0
718,243222796,0.999864438648659,0.015683,0.001897,0.004643,0.187086,0.001146,0.171588,-0.828369,0.241455,-0.081543,0
719,243239463,0.999965116185307,0.008053,0.001415,0.001707,0.195455,0.052605,0.242896,-0.825928,0.241943,-0.091309,0
720,243256130,0.999988483389462,-0.004243,0.002120,-0.000732,0.177002,0.063933,0.258236,-0.824463,0.240967,-0.090820,0
721,243272797,0.999965153747967,-0.007715,0.002843,-0.001447,0.171813,0.001771,0.177970,-0.824951,0.239502,-0.085938,0
722,243289464,0.999792645710186,-0.009810,0.017692,-0.002331,0.294823,0.001496,0.240768,-0.825928,0.241943,-0.092285,0
723,243306131,0.999830823756111,-0.009461,-0.014532,-0.006134,0.033073,0.025609,-0.060753,-0.828369,0.239502,-0.084961,0
724,243322798,0.999939572676152,-0.008701,-0.004818,-0.004683,0.418669,0.084330,-0.013427,-0.837646,0.235840,-0.056152,0
725,243339465,0.999983489382100,0.001628,-0.003805,0.003987,0.146502,-0.030875,-0.002378,-0.838623,0.239746,-0.054688,0
726,243356132,0.999869028825681,-0.009983,-0.012169,0.003764,0.102508,0.076127,-0.121204,-0.839844,0.251465,-0.032227,0
727,243372799,0.999814103740315,-0.017381,-0.008207,0.001524,0.116123,-0.001461,-0.163554,-0.837891,0.256104,-0.010742,0
728,243389466,0.999821666401374,-0.015203,-0.011202,-0.000126,0.190703,-0.129238,-0.134860,-0.841064,0.262451,0.020020,0
729,243406133,0.999909735621974,-0.004736,-0.012553,0.000711,0.210320,-0.090507,-0.083642,-0.847900,0.261719,0.041016,0
730,243422800,0.999895561463386,0.002248,-0.014192,0.001545,0.173490,-0.077358,-0.034549,-0.845947,0.262939,0.059814,0
731,243439467,0.999862113233624,0.007564,-0.014717,0.001400,0.152786,-0.050545,-0.024476,-0.844727,0.267090,0.077637,0
732,243456134,0.999844308040042,0.010986,-0.013805,0.000279,0.167512,-0.028539,-0.007403,-0.849609,0.270752,0.091064,0
733,243472801,0.999846874396750,0.011215,-0.013433,0.000098,0.166665,-0.003049,0.006104,-0.849121,0.268311,0.098145,0
734,243489468,0.999887678902173,0.006991,-0.013241,0.000657,0.164347,0.006652,0.008571,-0.850098,0.268555,0.111572,0
735,243506135,0.999910247800801,0.001376,-0.013277,0.001150,0.163258,0.014373,0.006376,-0.849365,0.267578,0.127441,0
736,243522802,0.999905523229709,-0.002355,-0.013459,0.001504,0.166146,0.008931,0.007142,-0.849365,0.268799,0.147949,0
737,243539469,0.999896217774192,-0.003674,-0.013840,0.001583,0.157697,0.001070,0.009314,-0.845703,0.273438,0.170166,0
738,243556136,0.999878835203720,-0.004275,-0.014918,0.001228,0.156786,-0.008801,0.008486,-0.844727,0.275879,0.195557,0
739,243572803,0.999859567810507,-0.004543,-0.016089,0.001164,0.151817,-0.020930,0.003440,-0.838623,0.274902,0.218994,0
740,243589470,0.999838069455809,-0.003784,-0.017545,0.001303,0.149468,-0.036417,0.001899,-0.837402,0.275879,0.248779,0
741,243606137,0.999803725627910,-0.003165,-0.019502,0.001464,0.156432,-0.035335,0.004012,-0.825928,0.277100,0.277588,0
742,243622804,0.999767026704219,-0.003910,-0.021163,0.001650,0.159269,-0.023766,0.007113,-0.819092,0.280273,0.309082,0
743,243639471,0.999774541221139,-0.005054,-0.020572,0.001455,0.163578,-0.022117,0.005138,-0.807617,0.277100,0.337891,0
744,243656138,0.999850529462703,-0.004533,-0.016612,0.001550,0.171556,-0.031148,-0.008346,-0.798584,0.278564,0.369629,0
745,243672805,0.999897240838604,-0.002038,-0.014072,0.001823,0.168516,-0.027769,-0.020507,-0.790527,0.279053,0.385742,0
746,243689472,0.999917123751638,-0.001402,-0.012710,0.001499,0.166078,-0.029232,-0.015601,-0.785156,0.280762,0.408447,0
747,243706139,0.999929448863350,-0.003223,-0.011393,0.000949,0.171797,-0.034751,-0.023992,-0.772217,0.282471,0.423340,0
748,243722806,0.999938021232458,-0.005007,-0.009902,0.000913,0.173832,-0.035996,-0.033722,-0.766113,0.278076,0.440918,0
749,243739473,0.999946194828434,-0.003939,-0.009535,0.001081,0.173072,-0.023581,-0.021426,-0.758789,0.276855,0.455322,0
750,243756140,0.999942267900396,-0.005967,-0.008912,0.000661,0.171477,-0.010785,-0.009965,-0.750732,0.273926,0.470215,0
751,243772807,0.999932396756634,-0.007650,-0.008734,0.000621,0.161667,-0.014041,-0.002163,-0.744873,0.268066,0.488770,0
752,243789474,0.999928229632954,-0.007173,-0.009518,0.001218,0.166943,-0.019823,-0.009185,-0.736816,0.266846,0.507568,0
753,243806141,0.999921696627541,-0.007788,-0.009739,0.001052,0.172641,-0.020934,-0.009106,-0.728760,0.258545,0.524414,0
754,243822808,0.999908258862383,-0.009120,-0.010009,0.000360,0.180988,-0.027177,-0.005183,-0.720459,0.255859,0.542480,0
755,243839475,0.999928957492274,-0.008960,-0.007860,-0.000168,0.190360,-0.028567,-0.003679,-0.712402,0.246582,0.560303,0
756,243856142,0.999949096279827,-0.009113,-0.004329,0.000101,0.189184,-0.020325,0.002277,-0.707764,0.238281,0.575928,0
757,243872809,0.999938393786407,-0.011085,-0.000486,0.000299,0.191602,-0.008588,0.012432,-0.704834,0.230957,0.585693,0
758,243889476,0.999908047563360,-0.013497,0.001272,0.000328,0.196505,-0.015642,0.026989,-0.707031,0.217285,0.592773,0
759,243906143,0.999902451553401,-0.013393,0.003771,0.001219,0.225324,-0.036838,0.050598,-0.704102,0.203857,0.601807,0
760,243922810,0.999904345388135,-0.012093,0.006595,0.001248,0.234231,-0.030281,0.069032,-0.708984,0.196045,0.602783,0
761,243939477,0.999887063951696,-0.011528,0.009603,-0.000861,0.235982,0.007797,0.065813,-0.716797,0.183594,0.601318,0
762,243956144,0.999864678579303,-0.011406,0.011164,-0.003987,0.234795,0.069849,0.052539,-0.729980,0.168457,0.600830,0
763,243972811,0.999801697810975,-0.015671,0.011222,-0.005006,0.253141,0.042544,0.033912,-0.744385,0.148682,0.598877,0
764,243989478,0.999790189412693,-0.015785,0.012888,-0.002074,0.255560,-0.076534,0.002176,-0.753662,0.129883,0.592041,0
765,244006145,0.999814562834401,-0.009862,0.016400,0.002152,0.270152,-0.112642,-0.061975,-0.769043,0.115967,0.587891,0
766,244022812,0.999717641856641,0.000663,0.023342,0.004398,0.258402,-0.066558,-0.090051,-0.786865,0.118164,0.559570,0
767,244039479,0.999621459763005,0.005355,0.026651,0.004240,0.237912,-0.044715,-0.115514,-0.805176,0.127441,0.526367,0
768,244056146,0.999599246741573,0.007854,0.027076,0.002553,0.233596,-0.034166,-0.123382,-0.825195,0.137939,0.488037,0
769,244072813,0.999534728207761,0.012295,0.027877,0.001419,0.231325,-0.006929,-0.083879,-0.843994,0.147461,0.442139,0
770,244089480,0.999579043492037,0.011642,0.026536,0.001425,0.247625,0.017276,-0.070391,-0.862061,0.157959,0.404297,0
771,244106147,0.999672419931414,0.006921,0.024604,0.001342,0.231062,0.037161,-0.099394,-0.875977,0.166016,0.362549,0
772,244122814,0.999653834232199,0.003957,0.025867,0.002733,0.193144,0.019674,-0.081568,-0.887939,0.171143,0.326660,0
773,244139481,0.999686688654261,0.001877,0.024648,0.003934,0.168919,-0.002234,-0.066682,-0.895264,0.176514,0.285400,0
774,244156148,0.999734976669027,0.002568,0.022568,0.003748,0.155815,-0.006853,-0.079391,-0.899414,0.184570,0.252930,0
775,244172815,0.999745616685768,0.004468,0.021851,0.003355,0.142410,-0.006966,-0.079877,-0.907959,0.192627,0.218018,0
776,244189482,0.999775283567258,0.004916,0.020445,0.002684,0.135954,-0.003093,-0.075909,-0.905762,0.197754,0.185791,0
777,244206149,0.999811853190813,0.005323,0.018554,0.001917,0.123045,-0.016074,-0.076478,-0.911865,0.202881,0.151367,0
778,244222816,0.999844067208173,0.007451,0.015972,0.001105,0.119235,-0.020415,-0.080802,-0.909912,0.205078,0.122559,0
779,244239483,0.999852124745302,0.009666,0.014219,0.000360,0.099142,-0.011519,-0.085666,-0.908203,0.208740,0.095215,0
780,244256150,0.999876427577073,0.010169,0.011986,-0.000213,0.086595,-0.001120,-0.087272,-0.910645,0.205322,0.069824,0
781,244272817,0.999925313936367,0.008308,0.008942,-0.000619,0.076787,0.014842,-0.089050,-0.910400,0.205811,0.050049,0
782,244289484,0.999959778291454,0.006536,0.006108,-0.000637,0.074978,0.009226,-0.092041,-0.912354,0.203613,0.031982,0
783,244306151,0.999981024056815,0.004928,0.003633,-0.000681,0.068169,0.020085,-0.079516,-0.911377,0.198486,0.021484,0
784,244322818,0.999997148578328,0.001573,0.001406,-0.001119,0.074237,0.044283,-0.063672,-0.914551,0.197998,0.019043,0
785,244339485,0.999996513863662,-0.001712,0.000418,-0.001967,0.080544,0.026894,-0.041048,-0.915039,0.194580,0.020020,0
786,244356152,0.999995943482153,-0.001805,0.000166,-0.002197,0.091267,0.006783,-0.012235,-0.914307,0.191650,0.021729,0
787,244372819,0.999996906116255,-0.000135,0.002340,-0.000832,0.121320,-0.037081,0.011364,-0.919189,0.186523,0.019043,0
788,244389486,0.999981839616061,0.004250,0.003264,0.002758,0.160729,-0.090987,0.045014,-0.918945,0.187012,0.013672,0
789,244406153,0.999869388684931,0.014294,0.002736,0.007028,0.180264,-0.060782,0.090873,-0.910156,0.192383,0.003174,0
790,244422820,0.999819504555988,0.017097,0.001238,0.008193,0.200559,0.007001,0.185693,-0.910645,0.197998,-0.012695,0
791,244439487,0.999984890061230,0.003189,-0.003081,0.003249,0.196978,0.058386,0.281080,-0.909668,0.202881,-0.015137,0
792,244456154,0.999970158389178,-0.007189,-0.002820,0.000211,0.193636,0.035899,0.244882,-0.913086,0.203613,-0.007324,0
793,244472821,0.999983008125181,-0.005180,0.002513,0.000915,0.152437,-0.021292,0.159001,-0.909668,0.209961,-0.004395,0
794,244489488,0.999973320023640,-0.005502,0.004764,0.000626,0.156461,-0.038021,0.113053,-0.910156,0.210938,-0.004395,0
795,244506155,0.999950640044352,-0.009657,-0.001893,-0.001373,0.056336,-0.068091,0.012702,-0.910156,0.209961,-0.009766,0
796,244522822,0.999810062052910,0.000399,-0.018958,-0.004504,0.268461,0.008806,-0.102174,-0.923340,0.202148,0.030029,0
797,244539489,0.999707924314605,0.023798,0.003884,-0.001621,0.281743,0.032764,0.130872,-0.923340,0.197510,0.014648,0
798,244556156,0.999420214279788,0.031659,-0.012517,0.000482,0.176288,0.107104,0.118735,-0.926270,0.187012,0.003662,0
799,244572823,0.999845347054702,0.002877,-0.017328,-0.000864,0.238141,0.204316,-0.022945,-0.934082,0.184814,0.025635,0
800,244589490,0.999666325949826,-0.024418,-0.008287,0.001526,0.179232,0.011906,-0.098843,-0.936279,0.189941,0.054443,0
801,244606157,0.999661468096552,-0.024726,-0.007636,0.002691,0.118913,-0.098462,-0.107170,-0.934814,0.197754,0.080322,0
802,244622824,0.999858369463179,-0.012683,-0.010659,0.002962,0.140222,-0.060036,-0.070706,-0.934570,0.200439,0.107666,0
803,244639491,0.999922330193214,-0.007392,-0.010033,0.000172,0.185944,-0.037568,-0.035760,-0.930420,0.204590,0.131592,0
804,244656158,0.999945410518729,-0.003069,-0.009883,-0.001445,0.191318,-0.062553,-0.019330,-0.934326,0.205322,0.147949,0
805,244672825,0.999940784110818,0.004019,-0.010009,-0.001449,0.164791,-0.068042,-0.000762,-0.936279,0.196533,0.160889,0
806,244689492,0.999907621207660,0.008371,-0.010686,-0.000702,0.161593,-0.037621,-0.011664,-0.933105,0.198730,0.172363,0
807,244706159,0.999914415004592,0.007763,-0.010519,-0.000486,0.175077,-0.009327,-0.010484,-0.931152,0.198242,0.182373,0
808,244722826,0.999936138396086,0.004290,-0.010453,-0.000233,0.169793,0.010979,-0.008025,-0.930664,0.197510,0.195801,0
809,244739493,0.999950615926479,-0.000573,-0.009914,-0.000396,0.169143,0.013867,-0.005528,-0.933838,0.198242,0.212646,0
810,244756160,0.999949952284200,-0.003081,-0.009497,-0.000636,0.154823,-0.000983,0.001260,-0.929443,0.194824,0.229004,0
811,244772827,0.999944136204309,-0.005227,-0.009083,-0.001379,0.156095,-0.006541,0.003593,-0.929688,0.191650,0.247070,0
812,244789494,0.999944745481379,-0.006273,-0.008341,-0.001257,0.162957,-0.033958,0.012815,-0.930176,0.191895,0.262939,0
813,244806161,0.999953073868328,-0.004448,-0.008554,-0.000947,0.165997,-0.037186,0.021792,-0.926270,0.187500,0.278809,0
814,244822828,0.999962273385658,-0.002195,-0.008352,-0.000939,0.169645,-0.015113,0.028976,-0.926514,0.186279,0.295166,0
815,244839495,0.999969727165329,-0.002005,-0.007464,-0.000902,0.168534,-0.012718,0.033931,-0.921631,0.182861,0.304688,0
816,244856162,0.999976099697386,-0.002551,-0.006285,-0.001340,0.170671,-0.029075,0.025933,-0.921387,0.180908,0.320557,0
817,244872829,0.999979975031077,-0.000241,-0.006235,-0.001054,0.153075,-0.033320,0.019687,-0.921875,0.178223,0.328125,0
818,244889496,0.999979076681526,0.001476,-0.006183,-0.001198,0.151847,-0.033381,0.014455,-0.918457,0.179199,0.338135,0
819,244906163,0.999975663782118,0.002765,-0.006241,-0.001440,0.161726,-0.026077,0.007455,-0.919434,0.173340,0.346436,0
820,244922830,0.999974215396116,0.002671,-0.006477,-0.001578,0.162055,-0.021525,0.002701,-0.917725,0.172363,0.355469,0
821,244939497,0.999970377837575,0.002504,-0.007106,-0.001576,0.155656,-0.020635,-0.006567,-0.917725,0.171143,0.364502,0
822,244956164,0.999965421984451,0.002763,-0.007678,-0.001601,0.157844,-0.019375,-0.006979,-0.917236,0.173096,0.373779,0
823,244972831,0.999958822666522,0.002934,-0.008389,-0.001834,0.158111,-0.021242,0.000540,-0.913574,0.167236,0.383301,0
824,244989498,0.999947016389388,0.002633,-0.009682,-0.002300,0.159187,-0.030336,0.002542,-0.909180,0.166992,0.396729,0
825,245006165,0.999926056902824,0.004240,-0.011013,-0.002936,0.162212,-0.027888,-0.001335,-0.906738,0.164062,0.409180,0
826,245022832,0.999912659115446,0.006680,-0.010857,-0.003490,0.151207,-0.007646,0.005640,-0.906006,0.162842,0.423096,0
827,245039499,0.999939080595148,0.006020,-0.008503,-0.003645,0.171303,0.010050,0.014825,-0.900146,0.159424,0.434570,0
828,245056166,0.999967407296575,0.004254,-0.006277,-0.002772,0.192909,-0.003087,0.012903,-0.901611,0.157471,0.441162,0
829,245072833,0.999970818386555,0.002887,-0.006954,-0.001292,0.167838,-0.004766,0.015468,-0.900879,0.157471,0.448975,0
830,245089500,0.999972568555258,-0.002010,-0.007047,-0.001076,0.162264,-0.022417,0.006376,-0.898926,0.154297,0.458496,0
831,245106167,0.999980019472776,-0.003937,-0.004824,-0.001091,0.176902,-0.053795,0.015749,-0.895996,0.147461,0.474365,0
832,245122834,0.999996240676831,-0.000760,-0.002500,-0.000831,0.200991,-0.074100,0.035251,-0.898438,0.148438,0.477783,0
833,245139501,0.999993167152757,0.003464,-0.000933,-0.000893,0.215416,-0.065639,0.048900,-0.899170,0.145508,0.476807,0
834,245156168,0.999972397207446,0.007298,-0.000043,-0.001392,0.238142,-0.043773,0.060307,-0.900391,0.145996,0.473389,0
835,245172835,0.999920995826461,0.011881,0.002382,-0.003341,0.244365,-0.000772,0.067361,-0.907227,0.152344,0.467529,0
836,245189502,0.999925582128344,0.009867,0.004282,-0.005757,0.234462,0.018219,0.069064,-0.913086,0.149902,0.455078,0
837,245206169,0.999943213151153,0.006619,0.005336,-0.006426,0.208578,-0.033548,0.059188,-0.921631,0.143799,0.443604,0
838,245222836,0.999952170714722,0.006268,0.005946,-0.004584,0.196539,-0.087034,0.019905,-0.930420,0.140625,0.429199,0
839,245239503,0.999945432627712,0.006993,0.007254,-0.002760,0.206109,-0.117921,-0.037580,-0.937012,0.138184,0.415771,0
840,245256170,0.999876106048893,0.011417,0.010815,-0.000675,0.203739,-0.149365,-0.086239,-0.946289,0.140869,0.395264,0
841,245272837,0.999739616824949,0.018763,0.012975,0.000557,0.186337,-0.167346,-0.123047,-0.954834,0.150391,0.365967,0
842,245289504,0.999547899973872,0.026048,0.014990,0.000890,0.178922,-0.161870,-0.142718,-0.961182,0.165039,0.333496,0
843,245306171,0.999362983310385,0.031782,0.016231,-0.000243,0.167035,-0.150578,-0.141892,-0.971191,0.178467,0.289795,0
844,245322838,0.999212985641800,0.036489,0.015555,-0.000121,0.164918,-0.132220,-0.130185,-0.980469,0.189209,0.241943,0
845,245339505,0.999216351465774,0.036859,0.014423,0.000202,0.176585,-0.120300,-0.126058,-0.985596,0.201172,0.195068,0
846,245356172,0.999190492187933,0.038059,0.013004,0.000859,0.170261,-0.105728,-0.137520,-0.989014,0.210938,0.145020,0
847,245372839,0.999162422218447,0.039088,0.011977,0.001772,0.162317,-0.080634,-0.127397,-0.990234,0.217529,0.102539,0
848,245389506,0.999204962783678,0.038164,0.011301,0.002285,0.156689,-0.069851,-0.120530,-0.992920,0.222900,0.054443,0
849,245406173,0.999172370581506,0.039409,0.009825,0.002223,0.141827,-0.056576,-0.121689,-0.991699,0.225830,0.006104,0
850,245422840,0.999195937208687,0.039178,0.008301,0.001911,0.139507,-0.031612,-0.105492,-0.989014,0.221924,-0.038574,0
851,245439507,0.999259249224576,0.037800,0.007020,0.001678,0.141142,-0.035673,-0.100462,-0.984863,0.216064,-0.076416,0
852,245456174,0.999248881684761,0.038267,0.005890,0.001609,0.142037,-0.027906,-0.100311,-0.983398,0.208252,-0.116211,0
853,245472841,0.999239570351907,0.038668,0.004906,0.001010,0.144263,0.002400,-0.087843,-0.977783,0.191895,-0.155518,0
854,245489508,0.999359221540162,0.035497,0.004546,0.000690,0.145046,0.011432,-0.076807,-0.977295,0.175293,-0.186279,0
855,245506175,0.999438796074197,0.033217,0.004213,0.000991,0.145451,0.014751,-0.070646,-0.972168,0.159912,-0.217041,0
856,245522842,0.999517226258769,0.030791,0.003978,0.001188,0.147106,0.025241,-0.058933,-0.968750,0.138916,-0.246826,0
857,245539509,0.999607033015120,0.027774,0.003486,0.001485,0.151424,0.036641,-0.045823,-0.965820,0.123291,-0.268311,0
858,245556176,0.999663708196799,0.025693,0.003093,0.001665,0.158339,0.051672,-0.034901,-0.962402,0.109131,-0.292236,0
859,245572843,0.999716891961001,0.023519,0.003366,0.001290,0.161009,0.066593,-0.020451,-0.957031,0.092773,-0.307617,0
860,245589510,0.999766283484011,0.021274,0.003727,0.000952,0.161570,0.070213,-0.001591,-0.954102,0.074707,-0.328857,0
861,245606177,0.999782573836040,0.020424,0.004175,0.000503,0.164443,0.069972,0.014082,-0.953613,0.060059,-0.345703,0
862,245622844,0.999781579595233,0.020181,0.005429,-0.000238,0.166854,0.083015,0.028174,-0.943848,0.042480,-0.365723,0
863,245639511,0.999851259251078,0.015499,0.007537,-0.000662,0.160657,0.101342,0.038366,-0.939453,0.026123,-0.380615,0
864,245656178,0.999918542273141,0.009178,0.008869,-0.000082,0.152114,0.088493,0.037848,-0.934082,0.015869,-0.401367,0
865,245672845,0.999945233704808,0.004474,0.009373,0.001289,0.141317,0.062126,0.037873,-0.919434,0.009766,-0.416260,0
866,245689512,0.999949038655106,0.001058,0.009428,0.003450,0.133803,0.017743,0.042476,-0.912109,0.014893,-0.435791,0
867,245706179,0.999934270188724,0.000118,0.009726,0.006071,0.152493,-0.038191,0.054397,-0.896729,0.026611,-0.452148,0
868,245722846,0.999888238925623,-0.000608,0.012007,0.008886,0.153356,-0.061087,0.065396,-0.879150,0.038574,-0.469971,0
869,245739513,0.999930045108299,0.000310,0.007343,0.009268,0.138579,-0.049374,0.060112,-0.865967,0.052734,-0.484619,0
870,245756180,0.999967149870039,-0.001024,0.003478,0.007249,0.122786,-0.048588,0.073541,-0.854004,0.072021,-0.493408,0
871,245772847,0.999990365051318,-0.000054,0.001029,0.004267,0.115942,-0.056986,0.070760,-0.850098,0.078857,-0.498047,0
872,245789514,0.999989817932743,0.003631,0.001472,0.002238,0.129344,-0.052539,0.056098,-0.846191,0.081055,-0.505371,0
873,245806181,0.999986097888102,0.004563,0.002587,0.000537,0.134385,-0.029056,0.056244,-0.841797,0.078125,-0.509521,0
874,245822848,0.999937330351147,-0.003292,0.010419,-0.002438,0.146671,-0.005338,0.140895,-0.833008,0.076904,-0.528320,0
875,245839515,0.999882185975411,-0.006093,-0.012853,-0.005771,0.025885,0.007562,-0.039345,-0.838379,0.084473,-0.515381,0
876,245856182,0.999902299175304,0.004009,-0.012962,-0.003362,0.241606,0.077296,-0.074879,-0.858887,0.077393,-0.499023,0
877,245872849,0.999851261021174,0.017014,-0.002496,-0.001324,0.348403,0.071177,0.105405,-0.863770,0.059570,-0.500000,0
878,245889516,0.999856437764947,0.015626,-0.006546,0.000292,0.237109,0.072628,0.185410,-0.866211,0.041748,-0.505371,0
879,245906183,0.999845779414577,-0.004568,-0.016916,0.001184,0.203273,0.115195,0.020850,-0.884277,0.040039,-0.487061,0
880,245922850,0.999634208173470,-0.024415,-0.011267,0.002904,0.160670,0.032754,-0.100141,-0.900391,0.071045,-0.457764,0
881,245939517,0.999626302276382,-0.026225,-0.007229,0.002688,0.112860,-0.128654,-0.126860,-0.909668,0.109863,-0.439941,0
882,245956184,0.999919556795954,-0.009232,-0.008383,0.002317,0.130829,-0.199457,-0.075291,-0.916016,0.129883,-0.419434,0
883,245972851,0.999890817407571,0.011008,-0.009781,0.001230,0.179239,-0.123351,-0.043264,-0.922852,0.123047,-0.410645,0
884,245989518,0.999725601448578,0.020639,-0.011040,0.000936,0.191226,-0.019458,-0.005197,-0.933594,0.107910,-0.402588,0
885,246006185,0.999716834864285,0.020889,-0.011362,0.000900,0.177348,0.030217,0.003303,-0.945801,0.090088,-0.396973,0
886,246022852,0.999813372496321,0.015890,-0.010963,0.000739,0.157822,0.054766,0.017104,-0.956055,0.075439,-0.390625,0
887,246039519,0.999913889792952,0.007460,-0.010733,0.001168,0.159415,0.056873,0.019191,-0.966064,0.065186,-0.379639,0
888,246056186,0.999946185058069,-0.002533,-0.010008,0.001025,0.168988,0.034623,0.006949,-0.973389,0.069824,-0.360107,0
889,246072853,0.999928396908959,-0.006839,-0.009773,0.000955,0.165865,-0.007312,-0.000016,-0.979248,0.073486,-0.345215,0
890,246089520,0.999934729425588,-0.004739,-0.010380,0.000587,0.159073,-0.018627,-0.005132,-0.989990,0.085693,-0.325928,0
891,246106187,0.999939987648477,-0.001598,-0.010838,0.000001,0.162987,-0.021987,-0.013467,-1.001221,0.085938,-0.306641,0
892,246122854,0.999936501286076,0.000891,-0.011234,0.000050,0.160306,-0.027939,-0.019446,-1.008301,0.085205,-0.287598,0
893,246139521,0.999922579334413,0.002949,-0.012089,0.000067,0.155228,-0.018431,-0.019552,-1.020020,0.087891,-0.269775,0
894,246156188,0.999918647313320,0.002210,-0.012561,-0.000180,0.161579,0.002571,-0.019235,-1.030273,0.085205,-0.252441,0
895,246172855,0.999919349716060,0.000611,-0.012682,-0.000293,0.163304,0.005600,-0.014761,-1.036133,0.084961,-0.229492,0
896,246189522,0.999909797021236,-0.000940,-0.013398,-0.000117,0.161222,-0.002008,-0.015746,-1.045166,0.086670,-0.208984,0
897,246206189,0.999896652666038,-0.001353,-0.014313,-0.000046,0.156642,-0.010625,-0.014520,-1.055908,0.089111,-0.183594,0
898,246222856,0.999876994838910,-0.000515,-0.015669,0.000467,0.158403,-0.017408,-0.012698,-1.065674,0.089355,-0.155762,0
899,246239523,0.999837348957954,0.000472,-0.017999,0.001039,0.154278,-0.017822,-0.003168,-1.069824,0.091553,-0.125488,0
900,246256190,0.999786281095696,0.001263,-0.020555,0.001814,0.153791,-0.013196,0.013874,-1.080566,0.098633,-0.091309,0
901,246272857,0.999793775292736,0.001985,-0.020057,0.002483,0.169225,-0.018494,0.012744,-1.090088,0.099854,-0.054932,0
902,246289524,0.999848756369281,0.002626,-0.016910,0.003101,0.187530,-0.017754,-0.016406,-1.091797,0.109131,-0.025635,0
903,246306191,0.999908731619499,0.000973,-0.013189,0.002765,0.189675,-0.014972,-0.017125,-1.093750,0.114990,-0.001709,0
904,246322858,0.999921895963371,-0.001702,-0.012208,0.002069,0.179362,-0.013711,0.002663,-1.096191,0.120605,0.021240,0
905,246339525,0.999931128912169,-0.004312,-0.010859,0.001108,0.175191,-0.008644,0.006244,-1.095947,0.123779,0.042480,0
906,246356192,0.999946511063684,-0.005067,-0.008986,0.000736,0.175916,-0.010097,0.001301,-1.096924,0.125488,0.056885,0
907,246372859,0.999963026370312,-0.004259,-0.007466,0.000252,0.178220,-0.019651,-0.006527,-1.098877,0.125000,0.071289,0
908,246389526,0.999973519864016,-0.004079,-0.005965,-0.000861,0.183377,-0.032639,-0.018102,-1.095703,0.127686,0.083740,0
909,246406193,0.999976139324672,-0.005092,-0.004295,-0.001828,0.193278,-0.039473,-0.025606,-1.099121,0.126709,0.091309,0
910,246422860,0.999978041774585,-0.005891,-0.002230,-0.002059,0.196277,-0.029751,-0.016124,-1.098633,0.123779,0.093750,0
911,246439527,0.999972436567661,-0.007101,-0.000938,-0.001954,0.200375,-0.029680,0.003364,-1.097656,0.122314,0.093262,0
912,246456194,0.999968929377779,-0.007650,-0.000017,-0.001901,0.219375,-0.034911,0.025138,-1.094727,0.120361,0.094238,0
913,246472861,0.999953087824930,-0.009110,0.002088,-0.002544,0.239986,-0.041108,0.058638,-1.095703,0.114990,0.087891,0
914,246489528,0.999871856900890,-0.014193,0.006775,-0.002989,0.252995,-0.029696,0.087094,-1.096680,0.111328,0.079346,0
915,246506195,0.999752647052159,-0.012292,0.017769,-0.005273,0.243166,0.034644,0.054649,-1.091553,0.101074,0.048584,0
916,246522862,0.999838115804238,-0.011464,0.012616,-0.005757,0.208366,0.050955,0.041114,-1.087646,0.093750,0.021240,0
917,246539529,0.999874586854765,-0.010278,0.011749,-0.002671,0.213388,-0.024439,0.040289,-1.080811,0.089111,-0.003174,0
918,246556196,0.999895004387147,-0.008341,0.011670,0.002054,0.202446,-0.090173,-0.039702,-1.070312,0.090820,-0.025635,0
919,246572863,0.999885065034561,-0.000663,0.014375,0.004773,0.243520,-0.065313,-0.102574,-1.056641,0.099854,-0.057373,0
920,246589530,0.999763917862080,0.004712,0.020450,0.005630,0.235879,-0.025973,-0.116509,-1.035400,0.109131,-0.099121,0
921,246606197,0.999709656618924,0.008301,0.022254,0.004057,0.230021,-0.002275,-0.118646,-1.016113,0.106934,-0.145996,0
922,246622864,0.999676361626032,0.008210,0.023822,0.003504,0.229179,0.001154,-0.101546,-0.990723,0.105469,-0.189697,0
923,246639531,0.999688779300454,0.006775,0.023622,0.004295,0.222995,-0.010770,-0.101371,-0.960205,0.104248,-0.235352,0
924,246656198,0.999709013666365,0.006744,0.022622,0.004967,0.214501,-0.004105,-0.100449,-0.934326,0.106445,-0.271240,0
925,246672865,0.999694573736233,0.007623,0.022796,0.005745,0.199333,-0.002350,-0.096464,-0.908447,0.100830,-0.303467,0
926,246689532,0.999692635945183,0.009125,0.022200,0.006208,0.170172,0.001086,-0.087612,-0.878662,0.101807,-0.338867,0
927,246706199,0.999704720584668,0.010426,0.020959,0.006518,0.158969,0.019014,-0.085961,-0.846924,0.096924,-0.367676,0
928,246722866,0.999723618043897,0.010296,0.020100,0.006532,0.152802,0.020638,-0.083930,-0.824951,0.092773,-0.394531,0
929,246739533,0.999749968336647,0.009859,0.019185,0.005893,0.135866,0.012324,-0.077259,-0.793701,0.087891,-0.418457,0
930,246756200,0.999780371846898,0.009721,0.017791,0.005311,0.134013,-0.001493,-0.077071,-0.768311,0.085449,-0.440674,0
931,246772867,0.999803001194255,0.010612,0.016124,0.004621,0.128026,-0.006669,-0.078115,-0.747314,0.073730,-0.461182,0
932,246789534,0.999821844780414,0.012023,0.014046,0.003801,0.121518,-0.002909,-0.077867,-0.728271,0.067139,-0.476562,0
933,246806201,0.999852679471017,0.011431,0.012529,0.002643,0.112787,0.008705,-0.076542,-0.710449,0.055420,-0.493408,0
934,246822868,0.999899943346206,0.008982,0.010792,0.001722,0.104174,0.021273,-0.075880,-0.690918,0.041504,-0.504883,0
935,246839535,0.999947566205015,0.005586,0.008484,0.001295,0.102068,0.029663,-0.075333,-0.680664,0.037842,-0.519287,0
936,246856202,0.999973768987245,0.003393,0.006301,0.001118,0.101570,0.031825,-0.070952,-0.669922,0.033203,-0.524658,0
937,246872869,0.999989914732606,0.001508,0.004089,0.001084,0.099387,0.034685,-0.056377,-0.660156,0.029297,-0.526611,0
938,246889536,0.999996044968002,-0.000494,0.002387,0.001404,0.107710,0.037270,-0.040974,-0.658203,0.031250,-0.527588,0
939,246906203,0.999988318403755,-0.003453,0.002910,0.001724,0.110717,0.033080,-0.014134,-0.649414,0.039062,-0.525635,0
940,246922870,0.999977997919193,-0.004301,0.004853,0.001398,0.112974,-0.004852,0.012440,-0.642578,0.043457,-0.531738,0
941,246939537,0.999980710522962,-0.002736,0.005074,0.002313,0.132741,-0.027145,0.019559,-0.635742,0.048828,-0.531250,0
942,246956204,0.999974739253783,0.000315,0.004676,0.005344,0.146580,-0.042944,0.029394,-0.623779,0.052246,-0.532715,0
943,246972871,0.999957311566300,0.003590,0.004149,0.007435,0.164398,-0.039817,0.086610,-0.615967,0.054688,-0.535645,0
944,246989538,0.999962001571525,0.003103,0.003318,0.007440,0.177072,-0.031397,0.160731,-0.600342,0.056152,-0.540039,0
945,247006205,0.999978565190621,-0.003192,0.000333,0.005707,0.164201,-0.027195,0.204716,-0.594971,0.065430,-0.539062,0
946,247022872,0.999967284458739,-0.006566,-0.004089,0.002367,0.153275,-0.038582,0.184927,-0.594482,0.074463,-0.532227,0
947,247039539,0.999996321537279,-0.000326,-0.002692,0.000048,0.157836,-0.053286,0.148681,-0.602783,0.077393,-0.524170,0
948,247056206,0.999980383307356,0.006261,0.000175,-0.000044,0.156766,-0.047591,0.110046,-0.600830,0.072021,-0.525146,0
949,247072873,0.999975466644750,0.006974,0.000577,0.000322,0.148330,-0.045007,0.061119,-0.599854,0.063232,-0.523682,0
950,247089540,0.999976464261422,0.006407,0.000236,-0.002442,0.138949,-0.019582,0.032634,-0.600342,0.048828,-0.526611,0
951,247106207,0.999836290868027,0.007829,-0.015252,-0.005786,0.164708,0.000444,-0.062246,-0.617188,0.036133,-0.512695,0
952,247122874,0.999874607985808,0.015553,-0.000691,-0.002895,0.263434,0.037291,0.078456,-0.625000,0.014893,-0.512695,0
953,247139541,0.999754460229482,0.021780,-0.004047,-0.000517,0.209693,0.053297,0.148044,-0.627441,-0.011719,-0.513184,0
954,247156208,0.999759421150365,0.013443,-0.017270,-0.001457,0.205034,0.126031,0.051453,-0.647217,-0.032959,-0.504639,0
955,247172875,0.999884250018378,-0.007832,-0.013044,0.000051,0.185024,0.108964,-0.028593,-0.663818,-0.029541,-0.486084,0
956,247189542,0.999722327504992,-0.022823,-0.005755,0.001131,0.145694,-0.000736,-0.061794,-0.674805,-0.004150,-0.469238,0
957,247206209,0.999734092950902,-0.022320,-0.005336,0.002259,0.118531,-0.074167,-0.066144,-0.682617,0.024658,-0.460938,0
958,247222876,0.999889209001824,-0.012181,-0.008290,0.002114,0.161204,-0.099867,-0.076037,-0.689697,0.045166,-0.446533,0
959,247239543,0.999956410417269,-0.001718,-0.009030,0.001638,0.187743,-0.089907,-0.050270,-0.700439,0.054199,-0.432617,0
960,247256210,0.999915101531263,0.007671,-0.010513,0.000657,0.167915,-0.067430,-0.033622,-0.711182,0.046387,-0.424316,0
961,247272877,0.999841114853983,0.013833,-0.011205,0.000921,0.164589,-0.024291,-0.018217,-0.722656,0.035156,-0.417236,0
962,247289544,0.999843762482931,0.013430,-0.011469,0.000749,0.163321,0.011917,-0.003774,-0.735352,0.018066,-0.405273,0
963,247306211,0.999912679939656,0.006959,-0.011225,0.000459,0.172938,0.025353,0.000911,-0.745605,0.011230,-0.393311,0
964,247322878,0.999945048785733,-0.000941,-0.010419,0.000682,0.170080,0.019998,0.008520,-0.757324,0.010986,-0.381836,0
965,247339545,0.999931819059130,-0.005961,-0.010023,0.000599,0.168022,0.002045,0.011649,-0.765137,0.018066,-0.364502,0
966,247356212,0.999931140487850,-0.006309,-0.009873,0.000656,0.165185,-0.018086,0.009591,-0.776367,0.023682,-0.351074,0
967,247372879,0.999939507682737,-0.004219,-0.010140,0.000602,0.159426,-0.023156,0.010995,-0.783203,0.029785,-0.338623,0
968,247389546,0.999940897374098,-0.003124,-0.010396,0.000606,0.162398,-0.021185,0.008127,-0.793945,0.034424,-0.321777,0
969,247406213,0.999940959128504,-0.003208,-0.010364,0.000614,0.166147,-0.022987,0.006815,-0.799072,0.040039,-0.304932,0
970,247422880,0.999940257202969,-0.003595,-0.010290,0.000827,0.161687,-0.020723,0.006563,-0.814453,0.042725,-0.292969,0
971,247439547,0.999936635202988,-0.004261,-0.010393,0.000750,0.160112,-0.015925,0.003850,-0.821045,0.045410,-0.276611,0
972,247456214,0.999938344028019,-0.004708,-0.010025,0.000798,0.160714,-0.019671,0.000902,-0.827393,0.051025,-0.260986,0
973,247472881,0.999939525680643,-0.003804,-0.010284,0.000841,0.162178,-0.026468,-0.000450,-0.834229,0.056152,-0.244141,0
974,247489548,0.999938431803983,-0.003278,-0.010550,0.001043,0.166101,-0.022497,-0.005169,-0.842529,0.064453,-0.227783,0
975,247506215,0.999935740450037,-0.003440,-0.010752,0.001034,0.157274,-0.021913,-0.008698,-0.849854,0.065186,-0.212402,0
976,247522882,0.999934864422605,-0.002791,-0.011030,0.000905,0.160305,-0.025591,-0.017401,-0.857666,0.066895,-0.194580,0
977,247539549,0.999932881450162,-0.002230,-0.011325,0.000999,0.161024,-0.021446,-0.025516,-0.864990,0.070557,-0.177979,0
978,247556216,0.999923665122160,-0.003019,-0.011944,0.000946,0.162117,-0.015640,-0.023941,-0.871582,0.073730,-0.159180,0
979,247572883,0.999913410428497,-0.004417,-0.012365,0.000873,0.163098,-0.011539,-0.014170,-0.877930,0.079346,-0.140381,0
980,247589550,0.999905906476813,-0.005318,-0.012573,0.001350,0.160321,-0.018172,-0.000477,-0.881348,0.081543,-0.114990,0
981,247606217,0.999914700839832,-0.004808,-0.012057,0.001449,0.159872,-0.018287,0.010663,-0.887451,0.086670,-0.098145,0
982,247622884,0.999930137685329,-0.005256,-0.010529,0.001113,0.171889,-0.022960,0.012455,-0.891846,0.093506,-0.076660,0
983,247639551,0.999945691333657,-0.007005,-0.007683,0.000716,0.180730,-0.030836,0.008798,-0.895264,0.093750,-0.061279,0
984,247656218,0.999962474958893,-0.006628,-0.005553,0.000534,0.184071,-0.026106,0.002689,-0.896729,0.097168,-0.048828,0
985,247672885,0.999963367724264,-0.007489,-0.004124,0.000408,0.172324,-0.017749,-0.004870,-0.900146,0.101807,-0.041748,0
986,247689552,0.999957613656441,-0.008780,-0.002726,0.000497,0.168599,-0.011781,-0.017431,-0.902588,0.107422,-0.032471,0
987,247706219,0.999953930087242,-0.009401,-0.001662,0.000998,0.169535,-0.008285,-0.027822,-0.902344,0.109863,-0.021973,0
988,247722886,0.999943940010847,-0.010532,-0.000430,0.000999,0.171997,-0.010720,-0.023519,-0.904297,0.112549,-0.015137,0
989,247739553,0.999932221219432,-0.011625,0.000103,0.000640,0.162231,-0.009190,-0.009866,-0.900391,0.115967,-0.011963,0
990,247756220,0.999928382968461,-0.011918,-0.000426,0.000999,0.165014,-0.014933,0.002424,-0.903809,0.122559,-0.006104,0
991,247772887,0.999925939558559,-0.012078,0.000729,0.001309,0.190935,-0.042903,0.020556,-0.905273,0.131348,0.001953,0
992,247789554,0.999940259595591,-0.010596,0.002487,0.001012,0.212017,-0.041495,0.039270,-0.902344,0.134033,0.005371,0
993,247806221,0.999963948025843,-0.007616,0.003749,-0.000218,0.225255,-0.009280,0.051040,-0.901367,0.135498,0.005859,0
994,247822888,0.999946733582752,-0.007549,0.006514,-0.002668,0.238812,0.039029,0.059297,-0.901123,0.136719,-0.002686,0
995,247839555,0.999897690660464,-0.010308,0.008428,-0.005227,0.250929,0.076906,0.055929,-0.906006,0.135254,-0.008545,0
996,247856222,0.999847811934953,-0.013697,0.009130,-0.005777,0.239749,0.058391,0.036215,-0.907471,0.130859,-0.016113,0
997,247872889,0.999848461064230,-0.013692,0.010434,-0.002592,0.225289,-0.014060,0.010253,-0.908936,0.131104,-0.026123,0
998,247889556,0.999855636568402,-0.010560,0.013188,0.001809,0.234727,-0.059149,-0.043465,-0.904297,0.136963,-0.041992,0
999,247906223,0.999795879308579,-0.009733,0.017368,0.003437,0.241570,-0.060775,-0.088856,-0.894531,0.147949,-0.060791,0
1000,247922890,0.999788333033660,-0.005237,0.019609,0.003369,0.241305,-0.078045,-0.123928,-0.888428,0.157715,-0.087646,0
1001,247939557,0.999774819948875,0.000323,0.021043,0.002723,0.219040,-0.069306,-0.123105,-0.878662,0.161133,-0.120605,0
1002,247956224,0.999751435323491,0.005622,0.021416,0.002614,0.191156,-0.058730,-0.113754,-0.866699,0.164307,-0.155029,0
1003,247972891,0.999723124819545,0.008431,0.021803,0.002689,0.188090,-0.047913,-0.087035,-0.852051,0.162354,-0.188232,0
1004,247989558,0.999737509130891,0.008991,0.020804,0.003359,0.196149,-0.049635,-0.082112,-0.837158,0.159424,-0.227051,0
